[{"view_history":"[{\"page_index\":0,\"viewing_time\":64452.800000190735}]","rt":64454.199999809265,"trial_type":"instructions","trial_index":0,"time_elapsed":64460,"internal_node_id":"0.0-0.0","browser_name":"Chrome","browser_version":"106.0","os_name":"Windows","os_version":"10","screen_resolution":"1536 x 864","window_resolution":"1536 x 722","window_width":1536,"window_height":722},{"success":true,"trial_type":"fullscreen","trial_index":1,"time_elapsed":67676,"internal_node_id":"0.0-1.0","browser_name":"Chrome","browser_version":"106.0","os_name":"Windows","os_version":"10","screen_resolution":"1536 x 864","window_resolution":"1536 x 722","window_width":1536,"window_height":722},{"rt":26716.39999961853,"response":"3","stimulus":"<div style =\"font-size:20px; position:relative; top: 35%; margin-right:auto\">Original: &nbsp;&nbsp;Because there are a few numbers of people at our store, it has been very inconvenienced for those who have been difficult to connect to the phone.</div><br><div style =\"font-size:20px; position:relative; top: 40%; margin-right:auto\"><i><b>Suggested: &nbsp;&nbsp;Because there are a few people in our store, it has been very incovenient for those who are having difficulty connecting to us through the phone.</i></b></div><br>","probe":"Original: &nbsp;&nbsp;Because there are a few numbers of people at our store, it has been very inconvenienced for those who have been difficult to connect to the phone.","probe1":"Suggested: &nbsp;&nbsp;Because there are a few people in our store, it has been very incovenient for those who are having difficulty connecting to us through the phone.","complexity":"High","trial_type":"html-slider-response","trial_index":2,"time_elapsed":94397,"internal_node_id":"0.0-2.0-0.0","browser_name":"Chrome","browser_version":"106.0","os_name":"Windows","os_version":"10","screen_resolution":"1536 x 864","window_resolution":"1536 x 722","window_width":1536,"window_height":722},{"rt":16488,"response":"3","stimulus":"<div style =\"font-size:20px; position:relative; top: 35%; margin-right:auto\">Original: &nbsp;&nbsp;There were 41 hospitalizations, with similar numbers in the three day and five day treatments (18 and 23, respectively).</div><br><div style =\"font-size:20px; position:relative; top: 40%; margin-right:auto\"><i><b>Suggested: &nbsp;&nbsp;Forty-one patients were admitted to hospital, 18 from the three-day treatment group and 23 from the five-day group.</i></b></div><br>","probe":"Original: &nbsp;&nbsp;There were 41 hospitalizations, with similar numbers in the three day and five day treatments (18 and 23, respectively).","probe1":"Suggested: &nbsp;&nbsp;Forty-one patients were admitted to hospital, 18 from the three-day treatment group and 23 from the five-day group.","complexity":"High","trial_type":"html-slider-response","trial_index":3,"time_elapsed":110887,"internal_node_id":"0.0-2.0-0.1","browser_name":"Chrome","browser_version":"106.0","os_name":"Windows","os_version":"10","screen_resolution":"1536 x 864","window_resolution":"1536 x 722","window_width":1536,"window_height":722},{"rt":20508.400000095367,"response":"3","stimulus":"<div style =\"font-size:20px; position:relative; top: 35%; margin-right:auto\">Original: &nbsp;&nbsp;Even after working hard I failed my mid-term exams and I asked to repeat year.</div><br><div style =\"font-size:20px; position:relative; top: 40%; margin-right:auto\"><i><b>Suggested: &nbsp;&nbsp;Despite working hard, I failed my mid-term exams and was asked to repeat a year.</i></b></div><br>","probe":"Original: &nbsp;&nbsp;Even after working hard I failed my mid-term exams and I asked to repeat year.","probe1":"Suggested: &nbsp;&nbsp;Despite working hard, I failed my mid-term exams and was asked to repeat a year.","complexity":"Medium","trial_type":"html-slider-response","trial_index":4,"time_elapsed":131399,"internal_node_id":"0.0-2.0-0.2","browser_name":"Chrome","browser_version":"106.0","os_name":"Windows","os_version":"10","screen_resolution":"1536 x 864","window_resolution":"1536 x 722","window_width":1536,"window_height":722},{"rt":6566.5,"response":"4","stimulus":"<div style =\"font-size:20px; position:relative; top: 35%; margin-right:auto\">Original: &nbsp;&nbsp;I go to there with my friends.</div><br><div style =\"font-size:20px; position:relative; top: 40%; margin-right:auto\"><i><b>Suggested: &nbsp;&nbsp;I go there with my friends.</i></b></div><br>","probe":"Original: &nbsp;&nbsp;I go to there with my friends.","probe1":"Suggested: &nbsp;&nbsp;I go there with my friends.","complexity":"Low","trial_type":"html-slider-response","trial_index":5,"time_elapsed":137968,"internal_node_id":"0.0-2.0-0.3","browser_name":"Chrome","browser_version":"106.0","os_name":"Windows","os_version":"10","screen_resolution":"1536 x 864","window_resolution":"1536 x 722","window_width":1536,"window_height":722},{"rt":32119.699999809265,"response":"3","stimulus":"<div style =\"font-size:20px; position:relative; top: 35%; margin-right:auto\">Original: &nbsp;&nbsp;Accounting for the origin of any conceptual requires specifying the innate building blocks from which the representations are built, and specifying the learning mechanisms that accomplish the feat.</div><br><div style =\"font-size:20px; position:relative; top: 40%; margin-right:auto\"><i><b>Suggested: &nbsp;&nbsp;Accounting for the origin of any concept requires specifying the innate building blocks from which the representations are built, and specifying the learning mechanisms that accomplish the feat.</i></b></div><br>","probe":"Original: &nbsp;&nbsp;Accounting for the origin of any conceptual requires specifying the innate building blocks from which the representations are built, and specifying the learning mechanisms that accomplish the feat.","probe1":"Suggested: &nbsp;&nbsp;Accounting for the origin of any concept requires specifying the innate building blocks from which the representations are built, and specifying the learning mechanisms that accomplish the feat.","complexity":"Low","trial_type":"html-slider-response","trial_index":6,"time_elapsed":170091,"internal_node_id":"0.0-2.0-0.4","browser_name":"Chrome","browser_version":"106.0","os_name":"Windows","os_version":"10","screen_resolution":"1536 x 864","window_resolution":"1536 x 722","window_width":1536,"window_height":722},{"rt":38335.2999997139,"response":"3","stimulus":"<div style =\"font-size:20px; position:relative; top: 35%; margin-right:auto\">Original: &nbsp;&nbsp;I stopped believing in Santa Claus when he asked my autograph at department store but I still want believe him.</div><br><div style =\"font-size:20px; position:relative; top: 40%; margin-right:auto\"><i><b>Suggested: &nbsp;&nbsp;I stopped believing in Santa Claus when he asked for my autograph in a department store, but I still want to believe in him.</i></b></div><br>","probe":"Original: &nbsp;&nbsp;I stopped believing in Santa Claus when he asked my autograph at department store but I still want believe him.","probe1":"Suggested: &nbsp;&nbsp;I stopped believing in Santa Claus when he asked for my autograph in a department store, but I still want to believe in him.","complexity":"Medium","trial_type":"html-slider-response","trial_index":7,"time_elapsed":208429,"internal_node_id":"0.0-2.0-0.5","browser_name":"Chrome","browser_version":"106.0","os_name":"Windows","os_version":"10","screen_resolution":"1536 x 864","window_resolution":"1536 x 722","window_width":1536,"window_height":722},{"rt":12865.199999809265,"response":"3","stimulus":"<div style =\"font-size:20px; position:relative; top: 35%; margin-right:auto\">Original: &nbsp;&nbsp;Gloria was very angry on her boyfriend for arriving more than 20 minutes late.</div><br><div style =\"font-size:20px; position:relative; top: 40%; margin-right:auto\"><i><b>Suggested: &nbsp;&nbsp;Gloria was very angry with her boyfriend for arriving more than 20 minutes late.</i></b></div><br>","probe":"Original: &nbsp;&nbsp;Gloria was very angry on her boyfriend for arriving more than 20 minutes late.","probe1":"Suggested: &nbsp;&nbsp;Gloria was very angry with her boyfriend for arriving more than 20 minutes late.","complexity":"Low","trial_type":"html-slider-response","trial_index":8,"time_elapsed":221296,"internal_node_id":"0.0-2.0-0.6","browser_name":"Chrome","browser_version":"106.0","os_name":"Windows","os_version":"10","screen_resolution":"1536 x 864","window_resolution":"1536 x 722","window_width":1536,"window_height":722},{"rt":13054.799999713898,"response":"3","stimulus":"<div style =\"font-size:20px; position:relative; top: 35%; margin-right:auto\">Original: &nbsp;&nbsp;We won't do anything illegal; we'll just bend law a little.</div><br><div style =\"font-size:20px; position:relative; top: 40%; margin-right:auto\"><i><b>Suggested: &nbsp;&nbsp;We won't do anything illegal; we'll just bend the law a little.</i></b></div><br>","probe":"Original: &nbsp;&nbsp;We won't do anything illegal; we'll just bend law a little.","probe1":"Suggested: &nbsp;&nbsp;We won't do anything illegal; we'll just bend the law a little.","complexity":"Low","trial_type":"html-slider-response","trial_index":9,"time_elapsed":234353,"internal_node_id":"0.0-2.0-0.7","browser_name":"Chrome","browser_version":"106.0","os_name":"Windows","os_version":"10","screen_resolution":"1536 x 864","window_resolution":"1536 x 722","window_width":1536,"window_height":722},{"rt":4636.800000190735,"response":"3","stimulus":"<div style =\"font-size:20px; position:relative; top: 35%; margin-right:auto\">Original: &nbsp;&nbsp;Coco studied in the Art school of Brussels and now us living and working in the South of France since 2011, Coco develop a mix of media art using paper is ancient but authen</div><br><div style =\"font-size:20px; position:relative; top: 40%; margin-right:auto\"><i><b>Suggested: &nbsp;&nbsp;Coco studied at the Art school of Brussels and is now living and working in the South of France. Since 2011, Coco has been developing a mix of media art using authentic antique paper.</i></b></div><br>","probe":"Original: &nbsp;&nbsp;Coco studied in the Art school of Brussels and now us living and working in the South of France since 2011, Coco develop a mix of media art using paper is ancient but authen","probe1":"Suggested: &nbsp;&nbsp;Coco studied at the Art school of Brussels and is now living and working in the South of France. Since 2011, Coco has been developing a mix of media art using authentic antique paper.","complexity":"High","trial_type":"html-slider-response","trial_index":10,"time_elapsed":238993,"internal_node_id":"0.0-2.0-0.8","browser_name":"Chrome","browser_version":"106.0","os_name":"Windows","os_version":"10","screen_resolution":"1536 x 864","window_resolution":"1536 x 722","window_width":1536,"window_height":722},{"rt":19510.10000038147,"response":"2","stimulus":"<div style =\"font-size:20px; position:relative; top: 35%; margin-right:auto\">Original: &nbsp;&nbsp;This is exact the way humans civilization should be evolving, and developing.</div><br><div style =\"font-size:20px; position:relative; top: 40%; margin-right:auto\"><i><b>Suggested: &nbsp;&nbsp;This is exactly the way human civilization should be evolving and developing.</i></b></div><br>","probe":"Original: &nbsp;&nbsp;This is exact the way humans civilization should be evolving, and developing.","probe1":"Suggested: &nbsp;&nbsp;This is exactly the way human civilization should be evolving and developing.","complexity":"Low","trial_type":"html-slider-response","trial_index":11,"time_elapsed":258506,"internal_node_id":"0.0-2.0-0.9","browser_name":"Chrome","browser_version":"106.0","os_name":"Windows","os_version":"10","screen_resolution":"1536 x 864","window_resolution":"1536 x 722","window_width":1536,"window_height":722},{"rt":17581.799999713898,"response":"3","stimulus":"<div style =\"font-size:20px; position:relative; top: 35%; margin-right:auto\">Original: &nbsp;&nbsp;Their proliferation with out credible solutions suggest biodiversity offset programs are successful “symbolic policies,” potential for obscuring biodiversity loss and dissipating impetus in action.</div><br><div style =\"font-size:20px; position:relative; top: 40%; margin-right:auto\"><i><b>Suggested: &nbsp;&nbsp;Their proliferation without credible solutions suggests biodiversity offset programs are successful “symbolic policies,” potentially obscuring biodiversity loss and dissipating impetus for action.</i></b></div><br>","probe":"Original: &nbsp;&nbsp;Their proliferation with out credible solutions suggest biodiversity offset programs are successful “symbolic policies,” potential for obscuring biodiversity loss and dissipating impetus in action.","probe1":"Suggested: &nbsp;&nbsp;Their proliferation without credible solutions suggests biodiversity offset programs are successful “symbolic policies,” potentially obscuring biodiversity loss and dissipating impetus for action.","complexity":"High","trial_type":"html-slider-response","trial_index":12,"time_elapsed":276090,"internal_node_id":"0.0-2.0-0.10","browser_name":"Chrome","browser_version":"106.0","os_name":"Windows","os_version":"10","screen_resolution":"1536 x 864","window_resolution":"1536 x 722","window_width":1536,"window_height":722},{"rt":13132.400000095367,"response":"3","stimulus":"<div style =\"font-size:20px; position:relative; top: 35%; margin-right:auto\">Original: &nbsp;&nbsp;Don’t left the restaurant, until you washed all dishes .</div><br><div style =\"font-size:20px; position:relative; top: 40%; margin-right:auto\"><i><b>Suggested: &nbsp;&nbsp;Don’t leave the restaurant until you wash all the dishes.</i></b></div><br>","probe":"Original: &nbsp;&nbsp;Don’t left the restaurant, until you washed all dishes .","probe1":"Suggested: &nbsp;&nbsp;Don’t leave the restaurant until you wash all the dishes.","complexity":"Medium","trial_type":"html-slider-response","trial_index":13,"time_elapsed":289225,"internal_node_id":"0.0-2.0-0.11","browser_name":"Chrome","browser_version":"106.0","os_name":"Windows","os_version":"10","screen_resolution":"1536 x 864","window_resolution":"1536 x 722","window_width":1536,"window_height":722},{"rt":6627.599999904633,"response":"4","stimulus":"<div style =\"font-size:20px; position:relative; top: 35%; margin-right:auto\">Original: &nbsp;&nbsp;We have read your plan. The same is satisfactory.</div><br><div style =\"font-size:20px; position:relative; top: 40%; margin-right:auto\"><i><b>Suggested: &nbsp;&nbsp;We have read your proposal and it is satisfactory.</i></b></div><br>","probe":"Original: &nbsp;&nbsp;We have read your plan. The same is satisfactory.","probe1":"Suggested: &nbsp;&nbsp;We have read your proposal and it is satisfactory.","complexity":"High","trial_type":"html-slider-response","trial_index":14,"time_elapsed":295856,"internal_node_id":"0.0-2.0-0.12","browser_name":"Chrome","browser_version":"106.0","os_name":"Windows","os_version":"10","screen_resolution":"1536 x 864","window_resolution":"1536 x 722","window_width":1536,"window_height":722},{"rt":8235.799999713898,"response":"4","stimulus":"<div style =\"font-size:20px; position:relative; top: 35%; margin-right:auto\">Original: &nbsp;&nbsp;Elissa is very sick and will taken her to hospital before getting worse.</div><br><div style =\"font-size:20px; position:relative; top: 40%; margin-right:auto\"><i><b>Suggested: &nbsp;&nbsp;Elissa is very sick, and we will be taking her to the hospital before she gets worse.</i></b></div><br>","probe":"Original: &nbsp;&nbsp;Elissa is very sick and will taken her to hospital before getting worse.","probe1":"Suggested: &nbsp;&nbsp;Elissa is very sick, and we will be taking her to the hospital before she gets worse.","complexity":"Medium","trial_type":"html-slider-response","trial_index":15,"time_elapsed":304094,"internal_node_id":"0.0-2.0-0.13","browser_name":"Chrome","browser_version":"106.0","os_name":"Windows","os_version":"10","screen_resolution":"1536 x 864","window_resolution":"1536 x 722","window_width":1536,"window_height":722},{"rt":43638.800000190735,"response":"2","stimulus":"<div style =\"font-size:20px; position:relative; top: 35%; margin-right:auto\">Original: &nbsp;&nbsp;The team captain jumped in joy and fans cheered since we won the state championship. </div><br><div style =\"font-size:20px; position:relative; top: 40%; margin-right:auto\"><i><b>Suggested: &nbsp;&nbsp;The team captain jumped for joy and the fans cheered because we won the state championship. </i></b></div><br>","probe":"Original: &nbsp;&nbsp;The team captain jumped in joy and fans cheered since we won the state championship. ","probe1":"Suggested: &nbsp;&nbsp;The team captain jumped for joy and the fans cheered because we won the state championship. ","complexity":"Low","trial_type":"html-slider-response","trial_index":16,"time_elapsed":347737,"internal_node_id":"0.0-2.0-0.14","browser_name":"Chrome","browser_version":"106.0","os_name":"Windows","os_version":"10","screen_resolution":"1536 x 864","window_resolution":"1536 x 722","window_width":1536,"window_height":722},{"rt":5846.900000095367,"response":"2","stimulus":"<div style =\"font-size:20px; position:relative; top: 35%; margin-right:auto\">Original: &nbsp;&nbsp;They confisticated my licence.</div><br><div style =\"font-size:20px; position:relative; top: 40%; margin-right:auto\"><i><b>Suggested: &nbsp;&nbsp;They confiscated my license.</i></b></div><br>","probe":"Original: &nbsp;&nbsp;They confisticated my licence.","probe1":"Suggested: &nbsp;&nbsp;They confiscated my license.","complexity":"Low","trial_type":"html-slider-response","trial_index":17,"time_elapsed":353590,"internal_node_id":"0.0-2.0-0.15","browser_name":"Chrome","browser_version":"106.0","os_name":"Windows","os_version":"10","screen_resolution":"1536 x 864","window_resolution":"1536 x 722","window_width":1536,"window_height":722},{"rt":17756.599999904633,"response":"1","stimulus":"<div style =\"font-size:20px; position:relative; top: 35%; margin-right:auto\">Original: &nbsp;&nbsp;When a distinguished but elder scientist say something is possible, he most probably right.</div><br><div style =\"font-size:20px; position:relative; top: 40%; margin-right:auto\"><i><b>Suggested: &nbsp;&nbsp;When a distinguished but elderly scientist states that something is possible he is most probably right.</i></b></div><br>","probe":"Original: &nbsp;&nbsp;When a distinguished but elder scientist say something is possible, he most probably right.","probe1":"Suggested: &nbsp;&nbsp;When a distinguished but elderly scientist states that something is possible he is most probably right.","complexity":"Medium","trial_type":"html-slider-response","trial_index":18,"time_elapsed":371350,"internal_node_id":"0.0-2.0-0.16","browser_name":"Chrome","browser_version":"106.0","os_name":"Windows","os_version":"10","screen_resolution":"1536 x 864","window_resolution":"1536 x 722","window_width":1536,"window_height":722},{"rt":24180.900000095367,"response":"3","stimulus":"<div style =\"font-size:20px; position:relative; top: 35%; margin-right:auto\">Original: &nbsp;&nbsp;I’ve nixed the flirty fun–and sheer parts–in my wardrobe and instead opted for pinstripes and collars.</div><br><div style =\"font-size:20px; position:relative; top: 40%; margin-right:auto\"><i><b>Suggested: &nbsp;&nbsp;I’ve nixed the flirty fun–and sheer parts–of my wardrobe and have instead opted for pinstripes and collars.</i></b></div><br>","probe":"Original: &nbsp;&nbsp;I’ve nixed the flirty fun–and sheer parts–in my wardrobe and instead opted for pinstripes and collars.","probe1":"Suggested: &nbsp;&nbsp;I’ve nixed the flirty fun–and sheer parts–of my wardrobe and have instead opted for pinstripes and collars.","complexity":"Medium","trial_type":"html-slider-response","trial_index":19,"time_elapsed":395533,"internal_node_id":"0.0-2.0-0.17","browser_name":"Chrome","browser_version":"106.0","os_name":"Windows","os_version":"10","screen_resolution":"1536 x 864","window_resolution":"1536 x 722","window_width":1536,"window_height":722},{"rt":15715.89999961853,"response":"4","stimulus":"<div style =\"font-size:20px; position:relative; top: 35%; margin-right:auto\">Original: &nbsp;&nbsp;But a growing number of independent authors is building their names and making great incomes from bypassing the old publishing system.</div><br><div style =\"font-size:20px; position:relative; top: 40%; margin-right:auto\"><i><b>Suggested: &nbsp;&nbsp;But a growing number of independent authors are building their reputations and making good money by evading the old publishing system.</i></b></div><br>","probe":"Original: &nbsp;&nbsp;But a growing number of independent authors is building their names and making great incomes from bypassing the old publishing system.","probe1":"Suggested: &nbsp;&nbsp;But a growing number of independent authors are building their reputations and making good money by evading the old publishing system.","complexity":"High","trial_type":"html-slider-response","trial_index":20,"time_elapsed":411251,"internal_node_id":"0.0-2.0-0.18","browser_name":"Chrome","browser_version":"106.0","os_name":"Windows","os_version":"10","screen_resolution":"1536 x 864","window_resolution":"1536 x 722","window_width":1536,"window_height":722},{"rt":8927.099999904633,"response":"3","stimulus":"<div style =\"font-size:20px; position:relative; top: 35%; margin-right:auto\">Original: &nbsp;&nbsp;An evaluation of the program by us will allow greater efficiency in service to clients.</div><br><div style =\"font-size:20px; position:relative; top: 40%; margin-right:auto\"><i><b>Suggested: &nbsp;&nbsp;We will evaluate the program so that we can serve clients better.</i></b></div><br>","probe":"Original: &nbsp;&nbsp;An evaluation of the program by us will allow greater efficiency in service to clients.","probe1":"Suggested: &nbsp;&nbsp;We will evaluate the program so that we can serve clients better.","complexity":"High","trial_type":"html-slider-response","trial_index":21,"time_elapsed":420184,"internal_node_id":"0.0-2.0-0.19","browser_name":"Chrome","browser_version":"106.0","os_name":"Windows","os_version":"10","screen_resolution":"1536 x 864","window_resolution":"1536 x 722","window_width":1536,"window_height":722},{"rt":17565,"response":"2","stimulus":"<div style =\"font-size:20px; position:relative; top: 35%; margin-right:auto\">Original: &nbsp;&nbsp;First, the cybernetics technology and electronic reproduction created new forms in powerful pictoral simulation and illusionism.</div><br><div style =\"font-size:20px; position:relative; top: 40%; margin-right:auto\"><i><b>Suggested: &nbsp;&nbsp;First, cybernetics technology and electronic reproduction created new forms of powerful pictorial simulation and illusionism.</i></b></div><br>","probe":"Original: &nbsp;&nbsp;First, the cybernetics technology and electronic reproduction created new forms in powerful pictoral simulation and illusionism.","probe1":"Suggested: &nbsp;&nbsp;First, cybernetics technology and electronic reproduction created new forms of powerful pictorial simulation and illusionism.","complexity":"Medium","trial_type":"html-slider-response","trial_index":22,"time_elapsed":437751,"internal_node_id":"0.0-2.0-0.20","browser_name":"Chrome","browser_version":"106.0","os_name":"Windows","os_version":"10","screen_resolution":"1536 x 864","window_resolution":"1536 x 722","window_width":1536,"window_height":722},{"rt":26314.400000095367,"response":"2","stimulus":"<div style =\"font-size:20px; position:relative; top: 35%; margin-right:auto\">Original: &nbsp;&nbsp;Beginning next fall, students in the city's public schools will have to leave their cigarettes and other tobaco products at home.</div><br><div style =\"font-size:20px; position:relative; top: 40%; margin-right:auto\"><i><b>Suggested: &nbsp;&nbsp;Beginning next fall, students in the city's public schools will have to leave their cigarettes and other tobacco products at home.</i></b></div><br>","probe":"Original: &nbsp;&nbsp;Beginning next fall, students in the city's public schools will have to leave their cigarettes and other tobaco products at home.","probe1":"Suggested: &nbsp;&nbsp;Beginning next fall, students in the city's public schools will have to leave their cigarettes and other tobacco products at home.","complexity":"Low","trial_type":"html-slider-response","trial_index":23,"time_elapsed":464067,"internal_node_id":"0.0-2.0-0.21","browser_name":"Chrome","browser_version":"106.0","os_name":"Windows","os_version":"10","screen_resolution":"1536 x 864","window_resolution":"1536 x 722","window_width":1536,"window_height":722},{"rt":9243.700000286102,"response":"3","stimulus":"<div style =\"font-size:20px; position:relative; top: 35%; margin-right:auto\">Original: &nbsp;&nbsp;When the girls on the team got to the hotel, they dropped off her luggage.</div><br><div style =\"font-size:20px; position:relative; top: 40%; margin-right:auto\"><i><b>Suggested: &nbsp;&nbsp;When the girls on the team got to the hotel, they dropped off their luggage.</i></b></div><br>","probe":"Original: &nbsp;&nbsp;When the girls on the team got to the hotel, they dropped off her luggage.","probe1":"Suggested: &nbsp;&nbsp;When the girls on the team got to the hotel, they dropped off their luggage.","complexity":"Low","trial_type":"html-slider-response","trial_index":24,"time_elapsed":473313,"internal_node_id":"0.0-2.0-0.22","browser_name":"Chrome","browser_version":"106.0","os_name":"Windows","os_version":"10","screen_resolution":"1536 x 864","window_resolution":"1536 x 722","window_width":1536,"window_height":722},{"rt":17974.900000095367,"response":"3","stimulus":"<div style =\"font-size:20px; position:relative; top: 35%; margin-right:auto\">Original: &nbsp;&nbsp;Several twin studies have shown that exercise behavior is influenced by genetic factors.</div><br><div style =\"font-size:20px; position:relative; top: 40%; margin-right:auto\"><i><b>Suggested: &nbsp;&nbsp;Several twin studies have shown that genetic factors influence exercise behavior.</i></b></div><br>","probe":"Original: &nbsp;&nbsp;Several twin studies have shown that exercise behavior is influenced by genetic factors.","probe1":"Suggested: &nbsp;&nbsp;Several twin studies have shown that genetic factors influence exercise behavior.","complexity":"Medium","trial_type":"html-slider-response","trial_index":25,"time_elapsed":491294,"internal_node_id":"0.0-2.0-0.23","browser_name":"Chrome","browser_version":"106.0","os_name":"Windows","os_version":"10","screen_resolution":"1536 x 864","window_resolution":"1536 x 722","window_width":1536,"window_height":722},{"rt":7260.300000190735,"response":"3","stimulus":"<div style =\"font-size:20px; position:relative; top: 35%; margin-right:auto\">Original: &nbsp;&nbsp;They see Chen is caught by a cop in the park last night.</div><br><div style =\"font-size:20px; position:relative; top: 40%; margin-right:auto\"><i><b>Suggested: &nbsp;&nbsp;They saw that Chen was caught by a cop in the park last night.</i></b></div><br>","probe":"Original: &nbsp;&nbsp;They see Chen is caught by a cop in the park last night.","probe1":"Suggested: &nbsp;&nbsp;They saw that Chen was caught by a cop in the park last night.","complexity":"Medium","trial_type":"html-slider-response","trial_index":26,"time_elapsed":498557,"internal_node_id":"0.0-2.0-0.24","browser_name":"Chrome","browser_version":"106.0","os_name":"Windows","os_version":"10","screen_resolution":"1536 x 864","window_resolution":"1536 x 722","window_width":1536,"window_height":722},{"rt":5512.299999713898,"response":"4","stimulus":"<div style =\"font-size:20px; position:relative; top: 35%; margin-right:auto\">Original: &nbsp;&nbsp;I stayed at Greece throughout a week</div><br><div style =\"font-size:20px; position:relative; top: 40%; margin-right:auto\"><i><b>Suggested: &nbsp;&nbsp;I stayed in Greece for a week</i></b></div><br>","probe":"Original: &nbsp;&nbsp;I stayed at Greece throughout a week","probe1":"Suggested: &nbsp;&nbsp;I stayed in Greece for a week","complexity":"Low","trial_type":"html-slider-response","trial_index":27,"time_elapsed":504073,"internal_node_id":"0.0-2.0-0.25","browser_name":"Chrome","browser_version":"106.0","os_name":"Windows","os_version":"10","screen_resolution":"1536 x 864","window_resolution":"1536 x 722","window_width":1536,"window_height":722},{"rt":18205.599999904633,"response":"3","stimulus":"<div style =\"font-size:20px; position:relative; top: 35%; margin-right:auto\">Original: &nbsp;&nbsp;While in section 7, we emphasis on utilizing cloud computing servicing in combating COVID-19</div><br><div style =\"font-size:20px; position:relative; top: 40%; margin-right:auto\"><i><b>Suggested: &nbsp;&nbsp;While in section 7, we emphasize on utilizing cloud computing servicing in combating COVID-19.</i></b></div><br>","probe":"Original: &nbsp;&nbsp;While in section 7, we emphasis on utilizing cloud computing servicing in combating COVID-19","probe1":"Suggested: &nbsp;&nbsp;While in section 7, we emphasize on utilizing cloud computing servicing in combating COVID-19.","complexity":"Low","trial_type":"html-slider-response","trial_index":28,"time_elapsed":522281,"internal_node_id":"0.0-2.0-0.26","browser_name":"Chrome","browser_version":"106.0","os_name":"Windows","os_version":"10","screen_resolution":"1536 x 864","window_resolution":"1536 x 722","window_width":1536,"window_height":722},{"rt":10680.5,"response":"2","stimulus":"<div style =\"font-size:20px; position:relative; top: 35%; margin-right:auto\">Original: &nbsp;&nbsp;I wanna have a cup of coffee.</div><br><div style =\"font-size:20px; position:relative; top: 40%; margin-right:auto\"><i><b>Suggested: &nbsp;&nbsp;I want to have a cup of coffee.</i></b></div><br>","probe":"Original: &nbsp;&nbsp;I wanna have a cup of coffee.","probe1":"Suggested: &nbsp;&nbsp;I want to have a cup of coffee.","complexity":"Low","trial_type":"html-slider-response","trial_index":29,"time_elapsed":532964,"internal_node_id":"0.0-2.0-0.27","browser_name":"Chrome","browser_version":"106.0","os_name":"Windows","os_version":"10","screen_resolution":"1536 x 864","window_resolution":"1536 x 722","window_width":1536,"window_height":722},{"rt":50191.09999990463,"response":"1","stimulus":"<div style =\"font-size:20px; position:relative; top: 35%; margin-right:auto\">Original: &nbsp;&nbsp;In the model, afterslip is attributing to the interaction of a velocity weakening region at depth (within which earthquakes nucleate) with an upper region on velocity-strengthening-frictional behavior.</div><br><div style =\"font-size:20px; position:relative; top: 40%; margin-right:auto\"><i><b>Suggested: &nbsp;&nbsp;In the model, afterslip is attributed to the interaction of a velocity-weakening region at depth (within which earthquakes nucleate) with an upper region of velocity-strengthening frictional behaviour.</i></b></div><br>","probe":"Original: &nbsp;&nbsp;In the model, afterslip is attributing to the interaction of a velocity weakening region at depth (within which earthquakes nucleate) with an upper region on velocity-strengthening-frictional behavior.","probe1":"Suggested: &nbsp;&nbsp;In the model, afterslip is attributed to the interaction of a velocity-weakening region at depth (within which earthquakes nucleate) with an upper region of velocity-strengthening frictional behaviour.","complexity":"Medium","trial_type":"html-slider-response","trial_index":30,"time_elapsed":583161,"internal_node_id":"0.0-2.0-0.28","browser_name":"Chrome","browser_version":"106.0","os_name":"Windows","os_version":"10","screen_resolution":"1536 x 864","window_resolution":"1536 x 722","window_width":1536,"window_height":722},{"rt":47011.199999809265,"response":"3","stimulus":"<div style =\"font-size:20px; position:relative; top: 35%; margin-right:auto\">Original: &nbsp;&nbsp;Sprott is the ultimate silver bull, it's his entire portfolio and he sells silver by a living.</div><br><div style =\"font-size:20px; position:relative; top: 40%; margin-right:auto\"><i><b>Suggested: &nbsp;&nbsp;Sprott is the ultimate silver bull, it's his entire portfolio and he sells silver for a living.</i></b></div><br>","probe":"Original: &nbsp;&nbsp;Sprott is the ultimate silver bull, it's his entire portfolio and he sells silver by a living.","probe1":"Suggested: &nbsp;&nbsp;Sprott is the ultimate silver bull, it's his entire portfolio and he sells silver for a living.","complexity":"Low","trial_type":"html-slider-response","trial_index":31,"time_elapsed":630179,"internal_node_id":"0.0-2.0-0.29","browser_name":"Chrome","browser_version":"106.0","os_name":"Windows","os_version":"10","screen_resolution":"1536 x 864","window_resolution":"1536 x 722","window_width":1536,"window_height":722},{"rt":67125.40000009537,"response":"3","stimulus":"<div style =\"font-size:20px; position:relative; top: 35%; margin-right:auto\">Original: &nbsp;&nbsp;We cleaned all the kitchen while our parents were out to dinner.</div><br><div style =\"font-size:20px; position:relative; top: 40%; margin-right:auto\"><i><b>Suggested: &nbsp;&nbsp;We cleaned the entire kitchen while our parents were out to dinner.</i></b></div><br>","probe":"Original: &nbsp;&nbsp;We cleaned all the kitchen while our parents were out to dinner.","probe1":"Suggested: &nbsp;&nbsp;We cleaned the entire kitchen while our parents were out to dinner.","complexity":"Low","trial_type":"html-slider-response","trial_index":32,"time_elapsed":697308,"internal_node_id":"0.0-2.0-0.30","browser_name":"Chrome","browser_version":"106.0","os_name":"Windows","os_version":"10","screen_resolution":"1536 x 864","window_resolution":"1536 x 722","window_width":1536,"window_height":722},{"rt":30355.300000190735,"response":"4","stimulus":"<div style =\"font-size:20px; position:relative; top: 35%; margin-right:auto\">Original: &nbsp;&nbsp;How did they get to know how to be able use this equipment?</div><br><div style =\"font-size:20px; position:relative; top: 40%; margin-right:auto\"><i><b>Suggested: &nbsp;&nbsp;How were they able to use this equipment?</i></b></div><br>","probe":"Original: &nbsp;&nbsp;How did they get to know how to be able use this equipment?","probe1":"Suggested: &nbsp;&nbsp;How were they able to use this equipment?","complexity":"High","trial_type":"html-slider-response","trial_index":33,"time_elapsed":727665,"internal_node_id":"0.0-2.0-0.31","browser_name":"Chrome","browser_version":"106.0","os_name":"Windows","os_version":"10","screen_resolution":"1536 x 864","window_resolution":"1536 x 722","window_width":1536,"window_height":722},{"rt":16091.799999713898,"response":"3","stimulus":"<div style =\"font-size:20px; position:relative; top: 35%; margin-right:auto\">Original: &nbsp;&nbsp;Carcinosarcoma by the esophagus has known to producing metastatic osteosarcoma in lung, kidney and iliac bone.</div><br><div style =\"font-size:20px; position:relative; top: 40%; margin-right:auto\"><i><b>Suggested: &nbsp;&nbsp;Carcinosarcoma of the oesophagus is known to produce metastatic osteosarcoma in the lungs, kidneys and ilium.</i></b></div><br>","probe":"Original: &nbsp;&nbsp;Carcinosarcoma by the esophagus has known to producing metastatic osteosarcoma in lung, kidney and iliac bone.","probe1":"Suggested: &nbsp;&nbsp;Carcinosarcoma of the oesophagus is known to produce metastatic osteosarcoma in the lungs, kidneys and ilium.","complexity":"High","trial_type":"html-slider-response","trial_index":34,"time_elapsed":743759,"internal_node_id":"0.0-2.0-0.32","browser_name":"Chrome","browser_version":"106.0","os_name":"Windows","os_version":"10","screen_resolution":"1536 x 864","window_resolution":"1536 x 722","window_width":1536,"window_height":722},{"rt":12734.599999904633,"response":"4","stimulus":"<div style =\"font-size:20px; position:relative; top: 35%; margin-right:auto\">Original: &nbsp;&nbsp;The Cobbler introduced this theory, although there is still remain some doubt regarding the authenticity of its origin.</div><br><div style =\"font-size:20px; position:relative; top: 40%; margin-right:auto\"><i><b>Suggested: &nbsp;&nbsp;The Cobbler introduced this theory, but the authenticity of its origin is still doubtful.</i></b></div><br>","probe":"Original: &nbsp;&nbsp;The Cobbler introduced this theory, although there is still remain some doubt regarding the authenticity of its origin.","probe1":"Suggested: &nbsp;&nbsp;The Cobbler introduced this theory, but the authenticity of its origin is still doubtful.","complexity":"High","trial_type":"html-slider-response","trial_index":35,"time_elapsed":756497,"internal_node_id":"0.0-2.0-0.33","browser_name":"Chrome","browser_version":"106.0","os_name":"Windows","os_version":"10","screen_resolution":"1536 x 864","window_resolution":"1536 x 722","window_width":1536,"window_height":722},{"rt":7548.099999904633,"response":"2","stimulus":"<div style =\"font-size:20px; position:relative; top: 35%; margin-right:auto\">Original: &nbsp;&nbsp;I walk to the store and I bought milk.</div><br><div style =\"font-size:20px; position:relative; top: 40%; margin-right:auto\"><i><b>Suggested: &nbsp;&nbsp;I walk to the store and I buy milk.</i></b></div><br>","probe":"Original: &nbsp;&nbsp;I walk to the store and I bought milk.","probe1":"Suggested: &nbsp;&nbsp;I walk to the store and I buy milk.","complexity":"Low","trial_type":"html-slider-response","trial_index":36,"time_elapsed":764048,"internal_node_id":"0.0-2.0-0.34","browser_name":"Chrome","browser_version":"106.0","os_name":"Windows","os_version":"10","screen_resolution":"1536 x 864","window_resolution":"1536 x 722","window_width":1536,"window_height":722},{"rt":4678.400000095367,"response":"3","stimulus":"<div style =\"font-size:20px; position:relative; top: 35%; margin-right:auto\">Original: &nbsp;&nbsp;I had got a bit chubby face when young, but I don't have anymore.</div><br><div style =\"font-size:20px; position:relative; top: 40%; margin-right:auto\"><i><b>Suggested: &nbsp;&nbsp;I used to have a chubby face when I was a kid.</i></b></div><br>","probe":"Original: &nbsp;&nbsp;I had got a bit chubby face when young, but I don't have anymore.","probe1":"Suggested: &nbsp;&nbsp;I used to have a chubby face when I was a kid.","complexity":"High","trial_type":"html-slider-response","trial_index":37,"time_elapsed":768729,"internal_node_id":"0.0-2.0-0.35","browser_name":"Chrome","browser_version":"106.0","os_name":"Windows","os_version":"10","screen_resolution":"1536 x 864","window_resolution":"1536 x 722","window_width":1536,"window_height":722},{"rt":13911.900000095367,"response":"3","stimulus":"<div style =\"font-size:20px; position:relative; top: 35%; margin-right:auto\">Original: &nbsp;&nbsp;Sometimes people try a lot to achieve their aims, but after many hardworking still they cannot get their goals.</div><br><div style =\"font-size:20px; position:relative; top: 40%; margin-right:auto\"><i><b>Suggested: &nbsp;&nbsp;Sometimes people work hard to achieve their goals, but after much hardwork, they still cannot achieve them.</i></b></div><br>","probe":"Original: &nbsp;&nbsp;Sometimes people try a lot to achieve their aims, but after many hardworking still they cannot get their goals.","probe1":"Suggested: &nbsp;&nbsp;Sometimes people work hard to achieve their goals, but after much hardwork, they still cannot achieve them.","complexity":"High","trial_type":"html-slider-response","trial_index":38,"time_elapsed":782643,"internal_node_id":"0.0-2.0-0.36","browser_name":"Chrome","browser_version":"106.0","os_name":"Windows","os_version":"10","screen_resolution":"1536 x 864","window_resolution":"1536 x 722","window_width":1536,"window_height":722},{"rt":29994,"response":"3","stimulus":"<div style =\"font-size:20px; position:relative; top: 35%; margin-right:auto\">Original: &nbsp;&nbsp;Though Mitchell prefers romantic films, he rented latest spy thriller, and enjoyed it lot.</div><br><div style =\"font-size:20px; position:relative; top: 40%; margin-right:auto\"><i><b>Suggested: &nbsp;&nbsp;Though Mitchell prefers watching romantic films, he rented the latest spy thriller, and he enjoyed it very much.</i></b></div><br>","probe":"Original: &nbsp;&nbsp;Though Mitchell prefers romantic films, he rented latest spy thriller, and enjoyed it lot.","probe1":"Suggested: &nbsp;&nbsp;Though Mitchell prefers watching romantic films, he rented the latest spy thriller, and he enjoyed it very much.","complexity":"Medium","trial_type":"html-slider-response","trial_index":39,"time_elapsed":812641,"internal_node_id":"0.0-2.0-0.37","browser_name":"Chrome","browser_version":"106.0","os_name":"Windows","os_version":"10","screen_resolution":"1536 x 864","window_resolution":"1536 x 722","window_width":1536,"window_height":722},{"rt":29126.099999904633,"response":"3","stimulus":"<div style =\"font-size:20px; position:relative; top: 35%; margin-right:auto\">Original: &nbsp;&nbsp;The news article has taken part making it clear that the company cheated its client to the tune of $8 million. </div><br><div style =\"font-size:20px; position:relative; top: 40%; margin-right:auto\"><i><b>Suggested: &nbsp;&nbsp;The news article has made it clear that the company cheated its clients to the tune of $8 million.</i></b></div><br>","probe":"Original: &nbsp;&nbsp;The news article has taken part making it clear that the company cheated its client to the tune of $8 million. ","probe1":"Suggested: &nbsp;&nbsp;The news article has made it clear that the company cheated its clients to the tune of $8 million.","complexity":"High","trial_type":"html-slider-response","trial_index":40,"time_elapsed":841770,"internal_node_id":"0.0-2.0-0.38","browser_name":"Chrome","browser_version":"106.0","os_name":"Windows","os_version":"10","screen_resolution":"1536 x 864","window_resolution":"1536 x 722","window_width":1536,"window_height":722},{"rt":11077.799999713898,"response":"3","stimulus":"<div style =\"font-size:20px; position:relative; top: 35%; margin-right:auto\">Original: &nbsp;&nbsp;I thinking of moving soon.</div><br><div style =\"font-size:20px; position:relative; top: 40%; margin-right:auto\"><i><b>Suggested: &nbsp;&nbsp;I am thinking of moving soon.</i></b></div><br>","probe":"Original: &nbsp;&nbsp;I thinking of moving soon.","probe1":"Suggested: &nbsp;&nbsp;I am thinking of moving soon.","complexity":"Low","trial_type":"html-slider-response","trial_index":41,"time_elapsed":852851,"internal_node_id":"0.0-2.0-0.39","browser_name":"Chrome","browser_version":"106.0","os_name":"Windows","os_version":"10","screen_resolution":"1536 x 864","window_resolution":"1536 x 722","window_width":1536,"window_height":722},{"rt":24825.10000038147,"response":"3","stimulus":"<div style =\"font-size:20px; position:relative; top: 35%; margin-right:auto\">Original: &nbsp;&nbsp;Almost 300 families are coming to church from this village.</div><br><div style =\"font-size:20px; position:relative; top: 40%; margin-right:auto\"><i><b>Suggested: &nbsp;&nbsp;Almost 300 families from this village come to church .</i></b></div><br>","probe":"Original: &nbsp;&nbsp;Almost 300 families are coming to church from this village.","probe1":"Suggested: &nbsp;&nbsp;Almost 300 families from this village come to church .","complexity":"Medium","trial_type":"html-slider-response","trial_index":42,"time_elapsed":877679,"internal_node_id":"0.0-2.0-0.40","browser_name":"Chrome","browser_version":"106.0","os_name":"Windows","os_version":"10","screen_resolution":"1536 x 864","window_resolution":"1536 x 722","window_width":1536,"window_height":722},{"rt":33152.800000190735,"response":"3","stimulus":"<div style =\"font-size:20px; position:relative; top: 35%; margin-right:auto\">Original: &nbsp;&nbsp;Then why ur office is delaying RTI replies?</div><br><div style =\"font-size:20px; position:relative; top: 40%; margin-right:auto\"><i><b>Suggested: &nbsp;&nbsp;Then why is your office delaying RTI replies?</i></b></div><br>","probe":"Original: &nbsp;&nbsp;Then why ur office is delaying RTI replies?","probe1":"Suggested: &nbsp;&nbsp;Then why is your office delaying RTI replies?","complexity":"Low","trial_type":"html-slider-response","trial_index":43,"time_elapsed":910834,"internal_node_id":"0.0-2.0-0.41","browser_name":"Chrome","browser_version":"106.0","os_name":"Windows","os_version":"10","screen_resolution":"1536 x 864","window_resolution":"1536 x 722","window_width":1536,"window_height":722},{"rt":111710.30000019073,"response":"3","stimulus":"<div style =\"font-size:20px; position:relative; top: 35%; margin-right:auto\">Original: &nbsp;&nbsp;They invade and occupied Jutland as this is peninsula directly connected with Germany.</div><br><div style =\"font-size:20px; position:relative; top: 40%; margin-right:auto\"><i><b>Suggested: &nbsp;&nbsp;They invaded and occupied Jutland as it is a peninsula directly connected to Germany.</i></b></div><br>","probe":"Original: &nbsp;&nbsp;They invade and occupied Jutland as this is peninsula directly connected with Germany.","probe1":"Suggested: &nbsp;&nbsp;They invaded and occupied Jutland as it is a peninsula directly connected to Germany.","complexity":"Medium","trial_type":"html-slider-response","trial_index":44,"time_elapsed":1022546,"internal_node_id":"0.0-2.0-0.42","browser_name":"Chrome","browser_version":"106.0","os_name":"Windows","os_version":"10","screen_resolution":"1536 x 864","window_resolution":"1536 x 722","window_width":1536,"window_height":722},{"rt":23195.400000095367,"response":"2","stimulus":"<div style =\"font-size:20px; position:relative; top: 35%; margin-right:auto\">Original: &nbsp;&nbsp;I see a disconnect among pedagogy and technology right now.</div><br><div style =\"font-size:20px; position:relative; top: 40%; margin-right:auto\"><i><b>Suggested: &nbsp;&nbsp;I see a disconnect between pedagogy and technology right now.</i></b></div><br>","probe":"Original: &nbsp;&nbsp;I see a disconnect among pedagogy and technology right now.","probe1":"Suggested: &nbsp;&nbsp;I see a disconnect between pedagogy and technology right now.","complexity":"Low","trial_type":"html-slider-response","trial_index":45,"time_elapsed":1045744,"internal_node_id":"0.0-2.0-0.43","browser_name":"Chrome","browser_version":"106.0","os_name":"Windows","os_version":"10","screen_resolution":"1536 x 864","window_resolution":"1536 x 722","window_width":1536,"window_height":722},{"rt":9852,"response":"3","stimulus":"<div style =\"font-size:20px; position:relative; top: 35%; margin-right:auto\">Original: &nbsp;&nbsp;Significantly, whereas anaerobiosis is essential for their powerful primary metabolism, the typical low aerotolerance complicate bioprocessing.</div><br><div style =\"font-size:20px; position:relative; top: 40%; margin-right:auto\"><i><b>Suggested: &nbsp;&nbsp;Significantly, while anaerobiosis is essential for their powerful primary metabolism, their typically low aerotolerance complicates bioprocessing.</i></b></div><br>","probe":"Original: &nbsp;&nbsp;Significantly, whereas anaerobiosis is essential for their powerful primary metabolism, the typical low aerotolerance complicate bioprocessing.","probe1":"Suggested: &nbsp;&nbsp;Significantly, while anaerobiosis is essential for their powerful primary metabolism, their typically low aerotolerance complicates bioprocessing.","complexity":"Medium","trial_type":"html-slider-response","trial_index":46,"time_elapsed":1055599,"internal_node_id":"0.0-2.0-0.44","browser_name":"Chrome","browser_version":"106.0","os_name":"Windows","os_version":"10","screen_resolution":"1536 x 864","window_resolution":"1536 x 722","window_width":1536,"window_height":722},{"rt":8582,"response":"4","stimulus":"<div style =\"font-size:20px; position:relative; top: 35%; margin-right:auto\">Original: &nbsp;&nbsp;For the last year, she has continued to sell real estate part-time, primarily weakends</div><br><div style =\"font-size:20px; position:relative; top: 40%; margin-right:auto\"><i><b>Suggested: &nbsp;&nbsp;For the last year, she has continued to sell real estate part-time, primarily weekends.</i></b></div><br>","probe":"Original: &nbsp;&nbsp;For the last year, she has continued to sell real estate part-time, primarily weakends","probe1":"Suggested: &nbsp;&nbsp;For the last year, she has continued to sell real estate part-time, primarily weekends.","complexity":"Low","trial_type":"html-slider-response","trial_index":47,"time_elapsed":1064184,"internal_node_id":"0.0-2.0-0.45","browser_name":"Chrome","browser_version":"106.0","os_name":"Windows","os_version":"10","screen_resolution":"1536 x 864","window_resolution":"1536 x 722","window_width":1536,"window_height":722},{"rt":38332.59999990463,"response":"3","stimulus":"<div style =\"font-size:20px; position:relative; top: 35%; margin-right:auto\">Original: &nbsp;&nbsp;The town has two railroads running through it. Also, three trolley lines. </div><br><div style =\"font-size:20px; position:relative; top: 40%; margin-right:auto\"><i><b>Suggested: &nbsp;&nbsp;The town has two railroads and three trolley lines running through it.</i></b></div><br>","probe":"Original: &nbsp;&nbsp;The town has two railroads running through it. Also, three trolley lines. ","probe1":"Suggested: &nbsp;&nbsp;The town has two railroads and three trolley lines running through it.","complexity":"Medium","trial_type":"html-slider-response","trial_index":48,"time_elapsed":1102520,"internal_node_id":"0.0-2.0-0.46","browser_name":"Chrome","browser_version":"106.0","os_name":"Windows","os_version":"10","screen_resolution":"1536 x 864","window_resolution":"1536 x 722","window_width":1536,"window_height":722},{"rt":19188,"response":"3","stimulus":"<div style =\"font-size:20px; position:relative; top: 35%; margin-right:auto\">Original: &nbsp;&nbsp;It becomes a more personal voyage in to those worlds, the mental image unencumbered with the limitations of the video-screen or the creator's vision. </div><br><div style =\"font-size:20px; position:relative; top: 40%; margin-right:auto\"><i><b>Suggested: &nbsp;&nbsp;It becomes a more personal voyage into those worlds, the mental image unencumbered by the limitations of the video screen or the creator's vision.</i></b></div><br>","probe":"Original: &nbsp;&nbsp;It becomes a more personal voyage in to those worlds, the mental image unencumbered with the limitations of the video-screen or the creator's vision. ","probe1":"Suggested: &nbsp;&nbsp;It becomes a more personal voyage into those worlds, the mental image unencumbered by the limitations of the video screen or the creator's vision.","complexity":"Medium","trial_type":"html-slider-response","trial_index":49,"time_elapsed":1121712,"internal_node_id":"0.0-2.0-0.47","browser_name":"Chrome","browser_version":"106.0","os_name":"Windows","os_version":"10","screen_resolution":"1536 x 864","window_resolution":"1536 x 722","window_width":1536,"window_height":722},{"rt":7519.199999809265,"response":"2","stimulus":"<div style =\"font-size:20px; position:relative; top: 35%; margin-right:auto\">Original: &nbsp;&nbsp;Maybe student can deciding to attend classes from home because it's benefit for them.</div><br><div style =\"font-size:20px; position:relative; top: 40%; margin-right:auto\"><i><b>Suggested: &nbsp;&nbsp;Maybe students can decide to attend classes from home because it benefits them.</i></b></div><br>","probe":"Original: &nbsp;&nbsp;Maybe student can deciding to attend classes from home because it's benefit for them.","probe1":"Suggested: &nbsp;&nbsp;Maybe students can decide to attend classes from home because it benefits them.","complexity":"Low","trial_type":"html-slider-response","trial_index":50,"time_elapsed":1129234,"internal_node_id":"0.0-2.0-0.48","browser_name":"Chrome","browser_version":"106.0","os_name":"Windows","os_version":"10","screen_resolution":"1536 x 864","window_resolution":"1536 x 722","window_width":1536,"window_height":722},{"rt":8206.099999904633,"response":"3","stimulus":"<div style =\"font-size:20px; position:relative; top: 35%; margin-right:auto\">Original: &nbsp;&nbsp;The survey we performed recently showed that most of customers are satisfied.</div><br><div style =\"font-size:20px; position:relative; top: 40%; margin-right:auto\"><i><b>Suggested: &nbsp;&nbsp;The survey we performed recently showed that most of the customers are satisfied.</i></b></div><br>","probe":"Original: &nbsp;&nbsp;The survey we performed recently showed that most of customers are satisfied.","probe1":"Suggested: &nbsp;&nbsp;The survey we performed recently showed that most of the customers are satisfied.","complexity":"Low","trial_type":"html-slider-response","trial_index":51,"time_elapsed":1137444,"internal_node_id":"0.0-2.0-0.49","browser_name":"Chrome","browser_version":"106.0","os_name":"Windows","os_version":"10","screen_resolution":"1536 x 864","window_resolution":"1536 x 722","window_width":1536,"window_height":722},{"rt":5307.300000190735,"response":"3","stimulus":"<div style =\"font-size:20px; position:relative; top: 35%; margin-right:auto\">Original: &nbsp;&nbsp;I am in favour of a solution finding.</div><br><div style =\"font-size:20px; position:relative; top: 40%; margin-right:auto\"><i><b>Suggested: &nbsp;&nbsp;I am in favour of finding a solution.</i></b></div><br>","probe":"Original: &nbsp;&nbsp;I am in favour of a solution finding.","probe1":"Suggested: &nbsp;&nbsp;I am in favour of finding a solution.","complexity":"Low","trial_type":"html-slider-response","trial_index":52,"time_elapsed":1142753,"internal_node_id":"0.0-2.0-0.50","browser_name":"Chrome","browser_version":"106.0","os_name":"Windows","os_version":"10","screen_resolution":"1536 x 864","window_resolution":"1536 x 722","window_width":1536,"window_height":722},{"rt":7520.800000190735,"response":"3","stimulus":"<div style =\"font-size:20px; position:relative; top: 35%; margin-right:auto\">Original: &nbsp;&nbsp;We drove all day in the van, we drove 206 miles to get to our cabin.</div><br><div style =\"font-size:20px; position:relative; top: 40%; margin-right:auto\"><i><b>Suggested: &nbsp;&nbsp;We drove all day in the van and we drove 206 miles to get to our cabin.</i></b></div><br>","probe":"Original: &nbsp;&nbsp;We drove all day in the van, we drove 206 miles to get to our cabin.","probe1":"Suggested: &nbsp;&nbsp;We drove all day in the van and we drove 206 miles to get to our cabin.","complexity":"Low","trial_type":"html-slider-response","trial_index":53,"time_elapsed":1150276,"internal_node_id":"0.0-2.0-0.51","browser_name":"Chrome","browser_version":"106.0","os_name":"Windows","os_version":"10","screen_resolution":"1536 x 864","window_resolution":"1536 x 722","window_width":1536,"window_height":722},{"rt":12210.699999809265,"response":"3","stimulus":"<div style =\"font-size:20px; position:relative; top: 35%; margin-right:auto\">Original: &nbsp;&nbsp;Ammons glide wondrously from a fresh element in these mosaic into its dominant core, cementing and enhancing it's naturalism.</div><br><div style =\"font-size:20px; position:relative; top: 40%; margin-right:auto\"><i><b>Suggested: &nbsp;&nbsp;Ammons glides wondrously from a fresh element in this mosaic into its dominant core, cementing and enhancing its naturalism.</i></b></div><br>","probe":"Original: &nbsp;&nbsp;Ammons glide wondrously from a fresh element in these mosaic into its dominant core, cementing and enhancing it's naturalism.","probe1":"Suggested: &nbsp;&nbsp;Ammons glides wondrously from a fresh element in this mosaic into its dominant core, cementing and enhancing its naturalism.","complexity":"Medium","trial_type":"html-slider-response","trial_index":54,"time_elapsed":1162490,"internal_node_id":"0.0-2.0-0.52","browser_name":"Chrome","browser_version":"106.0","os_name":"Windows","os_version":"10","screen_resolution":"1536 x 864","window_resolution":"1536 x 722","window_width":1536,"window_height":722},{"rt":17132.599999904633,"response":"3","stimulus":"<div style =\"font-size:20px; position:relative; top: 35%; margin-right:auto\">Original: &nbsp;&nbsp;Diana forget her friend birthday so she sent a card when she finally remember.</div><br><div style =\"font-size:20px; position:relative; top: 40%; margin-right:auto\"><i><b>Suggested: &nbsp;&nbsp;Diana forgot her friend's birthday, so she sent her a card when she finally remembered.</i></b></div><br>","probe":"Original: &nbsp;&nbsp;Diana forget her friend birthday so she sent a card when she finally remember.","probe1":"Suggested: &nbsp;&nbsp;Diana forgot her friend's birthday, so she sent her a card when she finally remembered.","complexity":"Medium","trial_type":"html-slider-response","trial_index":55,"time_elapsed":1179626,"internal_node_id":"0.0-2.0-0.53","browser_name":"Chrome","browser_version":"106.0","os_name":"Windows","os_version":"10","screen_resolution":"1536 x 864","window_resolution":"1536 x 722","window_width":1536,"window_height":722},{"rt":8186.099999904633,"response":"3","stimulus":"<div style =\"font-size:20px; position:relative; top: 35%; margin-right:auto\">Original: &nbsp;&nbsp;Since your going out, you should check the weather on you're phone.</div><br><div style =\"font-size:20px; position:relative; top: 40%; margin-right:auto\"><i><b>Suggested: &nbsp;&nbsp;Since you are going out, you should check the weather on your phone.</i></b></div><br>","probe":"Original: &nbsp;&nbsp;Since your going out, you should check the weather on you're phone.","probe1":"Suggested: &nbsp;&nbsp;Since you are going out, you should check the weather on your phone.","complexity":"Low","trial_type":"html-slider-response","trial_index":56,"time_elapsed":1187815,"internal_node_id":"0.0-2.0-0.54","browser_name":"Chrome","browser_version":"106.0","os_name":"Windows","os_version":"10","screen_resolution":"1536 x 864","window_resolution":"1536 x 722","window_width":1536,"window_height":722},{"rt":8502.800000190735,"response":"3","stimulus":"<div style =\"font-size:20px; position:relative; top: 35%; margin-right:auto\">Original: &nbsp;&nbsp;It’s almost spring end and I am not done shopping yet.</div><br><div style =\"font-size:20px; position:relative; top: 40%; margin-right:auto\"><i><b>Suggested: &nbsp;&nbsp;It’s nearly the end of spring, and I am not done with my shopping yet.</i></b></div><br>","probe":"Original: &nbsp;&nbsp;It’s almost spring end and I am not done shopping yet.","probe1":"Suggested: &nbsp;&nbsp;It’s nearly the end of spring, and I am not done with my shopping yet.","complexity":"Medium","trial_type":"html-slider-response","trial_index":57,"time_elapsed":1196321,"internal_node_id":"0.0-2.0-0.55","browser_name":"Chrome","browser_version":"106.0","os_name":"Windows","os_version":"10","screen_resolution":"1536 x 864","window_resolution":"1536 x 722","window_width":1536,"window_height":722},{"rt":33308.90000009537,"response":"3","stimulus":"<div style =\"font-size:20px; position:relative; top: 35%; margin-right:auto\">Original: &nbsp;&nbsp;Carcinosarcoma by the esophagus has known to producing metastatic osteosarcoma in lung, kidney and iliac bone.</div><br><div style =\"font-size:20px; position:relative; top: 40%; margin-right:auto\"><i><b>Suggested: &nbsp;&nbsp;Carcinosarcoma of the oesophagus is known to produce metastatic osteosarcoma in the lungs, kidneys and ilium.</i></b></div><br>","probe":"Original: &nbsp;&nbsp;Carcinosarcoma by the esophagus has known to producing metastatic osteosarcoma in lung, kidney and iliac bone.","probe1":"Suggested: &nbsp;&nbsp;Carcinosarcoma of the oesophagus is known to produce metastatic osteosarcoma in the lungs, kidneys and ilium.","complexity":"High","trial_type":"html-slider-response","trial_index":58,"time_elapsed":1229632,"internal_node_id":"0.0-2.0-0.56","browser_name":"Chrome","browser_version":"106.0","os_name":"Windows","os_version":"10","screen_resolution":"1536 x 864","window_resolution":"1536 x 722","window_width":1536,"window_height":722},{"rt":6281.400000095367,"response":"3","stimulus":"<div style =\"font-size:20px; position:relative; top: 35%; margin-right:auto\">Original: &nbsp;&nbsp;In recent years empowering women  have  been receiving  increasing attention as an important theme in the economic and social policy in Japan.</div><br><div style =\"font-size:20px; position:relative; top: 40%; margin-right:auto\"><i><b>Suggested: &nbsp;&nbsp;In recent years, the empowerment of women has received increasing attention as an important theme in the economic and social policies  of  Japan.</i></b></div><br>","probe":"Original: &nbsp;&nbsp;In recent years empowering women  have  been receiving  increasing attention as an important theme in the economic and social policy in Japan.","probe1":"Suggested: &nbsp;&nbsp;In recent years, the empowerment of women has received increasing attention as an important theme in the economic and social policies  of  Japan.","complexity":"High","trial_type":"html-slider-response","trial_index":59,"time_elapsed":1235916,"internal_node_id":"0.0-2.0-0.57","browser_name":"Chrome","browser_version":"106.0","os_name":"Windows","os_version":"10","screen_resolution":"1536 x 864","window_resolution":"1536 x 722","window_width":1536,"window_height":722},{"rt":15041.300000190735,"response":"1","stimulus":"<div style =\"font-size:20px; position:relative; top: 35%; margin-right:auto\">Original: &nbsp;&nbsp;Freddy likes his new Ford because it is four wheel drive he can drive on back roads all the time.</div><br><div style =\"font-size:20px; position:relative; top: 40%; margin-right:auto\"><i><b>Suggested: &nbsp;&nbsp;Freddy likes his new Ford. Because it is a four-wheel drive, he can drive on back roads all the time.</i></b></div><br>","probe":"Original: &nbsp;&nbsp;Freddy likes his new Ford because it is four wheel drive he can drive on back roads all the time.","probe1":"Suggested: &nbsp;&nbsp;Freddy likes his new Ford. Because it is a four-wheel drive, he can drive on back roads all the time.","complexity":"Medium","trial_type":"html-slider-response","trial_index":60,"time_elapsed":1250960,"internal_node_id":"0.0-2.0-0.58","browser_name":"Chrome","browser_version":"106.0","os_name":"Windows","os_version":"10","screen_resolution":"1536 x 864","window_resolution":"1536 x 722","window_width":1536,"window_height":722},{"rt":7679.300000190735,"response":"3","stimulus":"<div style =\"font-size:20px; position:relative; top: 35%; margin-right:auto\">Original: &nbsp;&nbsp;Artificial Intelligence (AI) intent is to facilitate human limits. </div><br><div style =\"font-size:20px; position:relative; top: 40%; margin-right:auto\"><i><b>Suggested: &nbsp;&nbsp;Artificial Intelligence (AI) intends to facilitate human limits.</i></b></div><br>","probe":"Original: &nbsp;&nbsp;Artificial Intelligence (AI) intent is to facilitate human limits. ","probe1":"Suggested: &nbsp;&nbsp;Artificial Intelligence (AI) intends to facilitate human limits.","complexity":"Medium","trial_type":"html-slider-response","trial_index":61,"time_elapsed":1258642,"internal_node_id":"0.0-2.0-0.59","browser_name":"Chrome","browser_version":"106.0","os_name":"Windows","os_version":"10","screen_resolution":"1536 x 864","window_resolution":"1536 x 722","window_width":1536,"window_height":722}]