"view_history","rt","trial_type","trial_index","time_elapsed","internal_node_id","browser_name","browser_version","os_name","os_version","screen_resolution","window_resolution","window_width","window_height","success","response","stimulus","probe","probe1","complexity"
"[{""page_index"":0,""viewing_time"":64452.800000190735}]","64454.199999809265","instructions","0","64460","0.0-0.0","Chrome","106.0","Windows","10","1536 x 864","1536 x 722","1536","722","","","","","",""
"","","fullscreen","1","67676","0.0-1.0","Chrome","106.0","Windows","10","1536 x 864","1536 x 722","1536","722","true","","","","",""
"","26716.39999961853","html-slider-response","2","94397","0.0-2.0-0.0","Chrome","106.0","Windows","10","1536 x 864","1536 x 722","1536","722","","3","<div style =""font-size:20px; position:relative; top: 35%; margin-right:auto"">Original: &nbsp;&nbsp;Because there are a few numbers of people at our store, it has been very inconvenienced for those who have been difficult to connect to the phone.</div><br><div style =""font-size:20px; position:relative; top: 40%; margin-right:auto""><i><b>Suggested: &nbsp;&nbsp;Because there are a few people in our store, it has been very incovenient for those who are having difficulty connecting to us through the phone.</i></b></div><br>","Original: &nbsp;&nbsp;Because there are a few numbers of people at our store, it has been very inconvenienced for those who have been difficult to connect to the phone.","Suggested: &nbsp;&nbsp;Because there are a few people in our store, it has been very incovenient for those who are having difficulty connecting to us through the phone.","High"
"","16488","html-slider-response","3","110887","0.0-2.0-0.1","Chrome","106.0","Windows","10","1536 x 864","1536 x 722","1536","722","","3","<div style =""font-size:20px; position:relative; top: 35%; margin-right:auto"">Original: &nbsp;&nbsp;There were 41 hospitalizations, with similar numbers in the three day and five day treatments (18 and 23, respectively).</div><br><div style =""font-size:20px; position:relative; top: 40%; margin-right:auto""><i><b>Suggested: &nbsp;&nbsp;Forty-one patients were admitted to hospital, 18 from the three-day treatment group and 23 from the five-day group.</i></b></div><br>","Original: &nbsp;&nbsp;There were 41 hospitalizations, with similar numbers in the three day and five day treatments (18 and 23, respectively).","Suggested: &nbsp;&nbsp;Forty-one patients were admitted to hospital, 18 from the three-day treatment group and 23 from the five-day group.","High"
"","20508.400000095367","html-slider-response","4","131399","0.0-2.0-0.2","Chrome","106.0","Windows","10","1536 x 864","1536 x 722","1536","722","","3","<div style =""font-size:20px; position:relative; top: 35%; margin-right:auto"">Original: &nbsp;&nbsp;Even after working hard I failed my mid-term exams and I asked to repeat year.</div><br><div style =""font-size:20px; position:relative; top: 40%; margin-right:auto""><i><b>Suggested: &nbsp;&nbsp;Despite working hard, I failed my mid-term exams and was asked to repeat a year.</i></b></div><br>","Original: &nbsp;&nbsp;Even after working hard I failed my mid-term exams and I asked to repeat year.","Suggested: &nbsp;&nbsp;Despite working hard, I failed my mid-term exams and was asked to repeat a year.","Medium"
"","6566.5","html-slider-response","5","137968","0.0-2.0-0.3","Chrome","106.0","Windows","10","1536 x 864","1536 x 722","1536","722","","4","<div style =""font-size:20px; position:relative; top: 35%; margin-right:auto"">Original: &nbsp;&nbsp;I go to there with my friends.</div><br><div style =""font-size:20px; position:relative; top: 40%; margin-right:auto""><i><b>Suggested: &nbsp;&nbsp;I go there with my friends.</i></b></div><br>","Original: &nbsp;&nbsp;I go to there with my friends.","Suggested: &nbsp;&nbsp;I go there with my friends.","Low"
"","32119.699999809265","html-slider-response","6","170091","0.0-2.0-0.4","Chrome","106.0","Windows","10","1536 x 864","1536 x 722","1536","722","","3","<div style =""font-size:20px; position:relative; top: 35%; margin-right:auto"">Original: &nbsp;&nbsp;Accounting for the origin of any conceptual requires specifying the innate building blocks from which the representations are built, and specifying the learning mechanisms that accomplish the feat.</div><br><div style =""font-size:20px; position:relative; top: 40%; margin-right:auto""><i><b>Suggested: &nbsp;&nbsp;Accounting for the origin of any concept requires specifying the innate building blocks from which the representations are built, and specifying the learning mechanisms that accomplish the feat.</i></b></div><br>","Original: &nbsp;&nbsp;Accounting for the origin of any conceptual requires specifying the innate building blocks from which the representations are built, and specifying the learning mechanisms that accomplish the feat.","Suggested: &nbsp;&nbsp;Accounting for the origin of any concept requires specifying the innate building blocks from which the representations are built, and specifying the learning mechanisms that accomplish the feat.","Low"
"","38335.2999997139","html-slider-response","7","208429","0.0-2.0-0.5","Chrome","106.0","Windows","10","1536 x 864","1536 x 722","1536","722","","3","<div style =""font-size:20px; position:relative; top: 35%; margin-right:auto"">Original: &nbsp;&nbsp;I stopped believing in Santa Claus when he asked my autograph at department store but I still want believe him.</div><br><div style =""font-size:20px; position:relative; top: 40%; margin-right:auto""><i><b>Suggested: &nbsp;&nbsp;I stopped believing in Santa Claus when he asked for my autograph in a department store, but I still want to believe in him.</i></b></div><br>","Original: &nbsp;&nbsp;I stopped believing in Santa Claus when he asked my autograph at department store but I still want believe him.","Suggested: &nbsp;&nbsp;I stopped believing in Santa Claus when he asked for my autograph in a department store, but I still want to believe in him.","Medium"
"","12865.199999809265","html-slider-response","8","221296","0.0-2.0-0.6","Chrome","106.0","Windows","10","1536 x 864","1536 x 722","1536","722","","3","<div style =""font-size:20px; position:relative; top: 35%; margin-right:auto"">Original: &nbsp;&nbsp;Gloria was very angry on her boyfriend for arriving more than 20 minutes late.</div><br><div style =""font-size:20px; position:relative; top: 40%; margin-right:auto""><i><b>Suggested: &nbsp;&nbsp;Gloria was very angry with her boyfriend for arriving more than 20 minutes late.</i></b></div><br>","Original: &nbsp;&nbsp;Gloria was very angry on her boyfriend for arriving more than 20 minutes late.","Suggested: &nbsp;&nbsp;Gloria was very angry with her boyfriend for arriving more than 20 minutes late.","Low"
"","13054.799999713898","html-slider-response","9","234353","0.0-2.0-0.7","Chrome","106.0","Windows","10","1536 x 864","1536 x 722","1536","722","","3","<div style =""font-size:20px; position:relative; top: 35%; margin-right:auto"">Original: &nbsp;&nbsp;We won't do anything illegal; we'll just bend law a little.</div><br><div style =""font-size:20px; position:relative; top: 40%; margin-right:auto""><i><b>Suggested: &nbsp;&nbsp;We won't do anything illegal; we'll just bend the law a little.</i></b></div><br>","Original: &nbsp;&nbsp;We won't do anything illegal; we'll just bend law a little.","Suggested: &nbsp;&nbsp;We won't do anything illegal; we'll just bend the law a little.","Low"
"","4636.800000190735","html-slider-response","10","238993","0.0-2.0-0.8","Chrome","106.0","Windows","10","1536 x 864","1536 x 722","1536","722","","3","<div style =""font-size:20px; position:relative; top: 35%; margin-right:auto"">Original: &nbsp;&nbsp;Coco studied in the Art school of Brussels and now us living and working in the South of France since 2011, Coco develop a mix of media art using paper is ancient but authen</div><br><div style =""font-size:20px; position:relative; top: 40%; margin-right:auto""><i><b>Suggested: &nbsp;&nbsp;Coco studied at the Art school of Brussels and is now living and working in the South of France. Since 2011, Coco has been developing a mix of media art using authentic antique paper.</i></b></div><br>","Original: &nbsp;&nbsp;Coco studied in the Art school of Brussels and now us living and working in the South of France since 2011, Coco develop a mix of media art using paper is ancient but authen","Suggested: &nbsp;&nbsp;Coco studied at the Art school of Brussels and is now living and working in the South of France. Since 2011, Coco has been developing a mix of media art using authentic antique paper.","High"
"","19510.10000038147","html-slider-response","11","258506","0.0-2.0-0.9","Chrome","106.0","Windows","10","1536 x 864","1536 x 722","1536","722","","2","<div style =""font-size:20px; position:relative; top: 35%; margin-right:auto"">Original: &nbsp;&nbsp;This is exact the way humans civilization should be evolving, and developing.</div><br><div style =""font-size:20px; position:relative; top: 40%; margin-right:auto""><i><b>Suggested: &nbsp;&nbsp;This is exactly the way human civilization should be evolving and developing.</i></b></div><br>","Original: &nbsp;&nbsp;This is exact the way humans civilization should be evolving, and developing.","Suggested: &nbsp;&nbsp;This is exactly the way human civilization should be evolving and developing.","Low"
"","17581.799999713898","html-slider-response","12","276090","0.0-2.0-0.10","Chrome","106.0","Windows","10","1536 x 864","1536 x 722","1536","722","","3","<div style =""font-size:20px; position:relative; top: 35%; margin-right:auto"">Original: &nbsp;&nbsp;Their proliferation with out credible solutions suggest biodiversity offset programs are successful “symbolic policies,” potential for obscuring biodiversity loss and dissipating impetus in action.</div><br><div style =""font-size:20px; position:relative; top: 40%; margin-right:auto""><i><b>Suggested: &nbsp;&nbsp;Their proliferation without credible solutions suggests biodiversity offset programs are successful “symbolic policies,” potentially obscuring biodiversity loss and dissipating impetus for action.</i></b></div><br>","Original: &nbsp;&nbsp;Their proliferation with out credible solutions suggest biodiversity offset programs are successful “symbolic policies,” potential for obscuring biodiversity loss and dissipating impetus in action.","Suggested: &nbsp;&nbsp;Their proliferation without credible solutions suggests biodiversity offset programs are successful “symbolic policies,” potentially obscuring biodiversity loss and dissipating impetus for action.","High"
"","13132.400000095367","html-slider-response","13","289225","0.0-2.0-0.11","Chrome","106.0","Windows","10","1536 x 864","1536 x 722","1536","722","","3","<div style =""font-size:20px; position:relative; top: 35%; margin-right:auto"">Original: &nbsp;&nbsp;Don’t left the restaurant, until you washed all dishes .</div><br><div style =""font-size:20px; position:relative; top: 40%; margin-right:auto""><i><b>Suggested: &nbsp;&nbsp;Don’t leave the restaurant until you wash all the dishes.</i></b></div><br>","Original: &nbsp;&nbsp;Don’t left the restaurant, until you washed all dishes .","Suggested: &nbsp;&nbsp;Don’t leave the restaurant until you wash all the dishes.","Medium"
"","6627.599999904633","html-slider-response","14","295856","0.0-2.0-0.12","Chrome","106.0","Windows","10","1536 x 864","1536 x 722","1536","722","","4","<div style =""font-size:20px; position:relative; top: 35%; margin-right:auto"">Original: &nbsp;&nbsp;We have read your plan. The same is satisfactory.</div><br><div style =""font-size:20px; position:relative; top: 40%; margin-right:auto""><i><b>Suggested: &nbsp;&nbsp;We have read your proposal and it is satisfactory.</i></b></div><br>","Original: &nbsp;&nbsp;We have read your plan. The same is satisfactory.","Suggested: &nbsp;&nbsp;We have read your proposal and it is satisfactory.","High"
"","8235.799999713898","html-slider-response","15","304094","0.0-2.0-0.13","Chrome","106.0","Windows","10","1536 x 864","1536 x 722","1536","722","","4","<div style =""font-size:20px; position:relative; top: 35%; margin-right:auto"">Original: &nbsp;&nbsp;Elissa is very sick and will taken her to hospital before getting worse.</div><br><div style =""font-size:20px; position:relative; top: 40%; margin-right:auto""><i><b>Suggested: &nbsp;&nbsp;Elissa is very sick, and we will be taking her to the hospital before she gets worse.</i></b></div><br>","Original: &nbsp;&nbsp;Elissa is very sick and will taken her to hospital before getting worse.","Suggested: &nbsp;&nbsp;Elissa is very sick, and we will be taking her to the hospital before she gets worse.","Medium"
"","43638.800000190735","html-slider-response","16","347737","0.0-2.0-0.14","Chrome","106.0","Windows","10","1536 x 864","1536 x 722","1536","722","","2","<div style =""font-size:20px; position:relative; top: 35%; margin-right:auto"">Original: &nbsp;&nbsp;The team captain jumped in joy and fans cheered since we won the state championship. </div><br><div style =""font-size:20px; position:relative; top: 40%; margin-right:auto""><i><b>Suggested: &nbsp;&nbsp;The team captain jumped for joy and the fans cheered because we won the state championship. </i></b></div><br>","Original: &nbsp;&nbsp;The team captain jumped in joy and fans cheered since we won the state championship. ","Suggested: &nbsp;&nbsp;The team captain jumped for joy and the fans cheered because we won the state championship. ","Low"
"","5846.900000095367","html-slider-response","17","353590","0.0-2.0-0.15","Chrome","106.0","Windows","10","1536 x 864","1536 x 722","1536","722","","2","<div style =""font-size:20px; position:relative; top: 35%; margin-right:auto"">Original: &nbsp;&nbsp;They confisticated my licence.</div><br><div style =""font-size:20px; position:relative; top: 40%; margin-right:auto""><i><b>Suggested: &nbsp;&nbsp;They confiscated my license.</i></b></div><br>","Original: &nbsp;&nbsp;They confisticated my licence.","Suggested: &nbsp;&nbsp;They confiscated my license.","Low"
"","17756.599999904633","html-slider-response","18","371350","0.0-2.0-0.16","Chrome","106.0","Windows","10","1536 x 864","1536 x 722","1536","722","","1","<div style =""font-size:20px; position:relative; top: 35%; margin-right:auto"">Original: &nbsp;&nbsp;When a distinguished but elder scientist say something is possible, he most probably right.</div><br><div style =""font-size:20px; position:relative; top: 40%; margin-right:auto""><i><b>Suggested: &nbsp;&nbsp;When a distinguished but elderly scientist states that something is possible he is most probably right.</i></b></div><br>","Original: &nbsp;&nbsp;When a distinguished but elder scientist say something is possible, he most probably right.","Suggested: &nbsp;&nbsp;When a distinguished but elderly scientist states that something is possible he is most probably right.","Medium"
"","24180.900000095367","html-slider-response","19","395533","0.0-2.0-0.17","Chrome","106.0","Windows","10","1536 x 864","1536 x 722","1536","722","","3","<div style =""font-size:20px; position:relative; top: 35%; margin-right:auto"">Original: &nbsp;&nbsp;I’ve nixed the flirty fun–and sheer parts–in my wardrobe and instead opted for pinstripes and collars.</div><br><div style =""font-size:20px; position:relative; top: 40%; margin-right:auto""><i><b>Suggested: &nbsp;&nbsp;I’ve nixed the flirty fun–and sheer parts–of my wardrobe and have instead opted for pinstripes and collars.</i></b></div><br>","Original: &nbsp;&nbsp;I’ve nixed the flirty fun–and sheer parts–in my wardrobe and instead opted for pinstripes and collars.","Suggested: &nbsp;&nbsp;I’ve nixed the flirty fun–and sheer parts–of my wardrobe and have instead opted for pinstripes and collars.","Medium"
"","15715.89999961853","html-slider-response","20","411251","0.0-2.0-0.18","Chrome","106.0","Windows","10","1536 x 864","1536 x 722","1536","722","","4","<div style =""font-size:20px; position:relative; top: 35%; margin-right:auto"">Original: &nbsp;&nbsp;But a growing number of independent authors is building their names and making great incomes from bypassing the old publishing system.</div><br><div style =""font-size:20px; position:relative; top: 40%; margin-right:auto""><i><b>Suggested: &nbsp;&nbsp;But a growing number of independent authors are building their reputations and making good money by evading the old publishing system.</i></b></div><br>","Original: &nbsp;&nbsp;But a growing number of independent authors is building their names and making great incomes from bypassing the old publishing system.","Suggested: &nbsp;&nbsp;But a growing number of independent authors are building their reputations and making good money by evading the old publishing system.","High"
"","8927.099999904633","html-slider-response","21","420184","0.0-2.0-0.19","Chrome","106.0","Windows","10","1536 x 864","1536 x 722","1536","722","","3","<div style =""font-size:20px; position:relative; top: 35%; margin-right:auto"">Original: &nbsp;&nbsp;An evaluation of the program by us will allow greater efficiency in service to clients.</div><br><div style =""font-size:20px; position:relative; top: 40%; margin-right:auto""><i><b>Suggested: &nbsp;&nbsp;We will evaluate the program so that we can serve clients better.</i></b></div><br>","Original: &nbsp;&nbsp;An evaluation of the program by us will allow greater efficiency in service to clients.","Suggested: &nbsp;&nbsp;We will evaluate the program so that we can serve clients better.","High"
"","17565","html-slider-response","22","437751","0.0-2.0-0.20","Chrome","106.0","Windows","10","1536 x 864","1536 x 722","1536","722","","2","<div style =""font-size:20px; position:relative; top: 35%; margin-right:auto"">Original: &nbsp;&nbsp;First, the cybernetics technology and electronic reproduction created new forms in powerful pictoral simulation and illusionism.</div><br><div style =""font-size:20px; position:relative; top: 40%; margin-right:auto""><i><b>Suggested: &nbsp;&nbsp;First, cybernetics technology and electronic reproduction created new forms of powerful pictorial simulation and illusionism.</i></b></div><br>","Original: &nbsp;&nbsp;First, the cybernetics technology and electronic reproduction created new forms in powerful pictoral simulation and illusionism.","Suggested: &nbsp;&nbsp;First, cybernetics technology and electronic reproduction created new forms of powerful pictorial simulation and illusionism.","Medium"
"","26314.400000095367","html-slider-response","23","464067","0.0-2.0-0.21","Chrome","106.0","Windows","10","1536 x 864","1536 x 722","1536","722","","2","<div style =""font-size:20px; position:relative; top: 35%; margin-right:auto"">Original: &nbsp;&nbsp;Beginning next fall, students in the city's public schools will have to leave their cigarettes and other tobaco products at home.</div><br><div style =""font-size:20px; position:relative; top: 40%; margin-right:auto""><i><b>Suggested: &nbsp;&nbsp;Beginning next fall, students in the city's public schools will have to leave their cigarettes and other tobacco products at home.</i></b></div><br>","Original: &nbsp;&nbsp;Beginning next fall, students in the city's public schools will have to leave their cigarettes and other tobaco products at home.","Suggested: &nbsp;&nbsp;Beginning next fall, students in the city's public schools will have to leave their cigarettes and other tobacco products at home.","Low"
"","9243.700000286102","html-slider-response","24","473313","0.0-2.0-0.22","Chrome","106.0","Windows","10","1536 x 864","1536 x 722","1536","722","","3","<div style =""font-size:20px; position:relative; top: 35%; margin-right:auto"">Original: &nbsp;&nbsp;When the girls on the team got to the hotel, they dropped off her luggage.</div><br><div style =""font-size:20px; position:relative; top: 40%; margin-right:auto""><i><b>Suggested: &nbsp;&nbsp;When the girls on the team got to the hotel, they dropped off their luggage.</i></b></div><br>","Original: &nbsp;&nbsp;When the girls on the team got to the hotel, they dropped off her luggage.","Suggested: &nbsp;&nbsp;When the girls on the team got to the hotel, they dropped off their luggage.","Low"
"","17974.900000095367","html-slider-response","25","491294","0.0-2.0-0.23","Chrome","106.0","Windows","10","1536 x 864","1536 x 722","1536","722","","3","<div style =""font-size:20px; position:relative; top: 35%; margin-right:auto"">Original: &nbsp;&nbsp;Several twin studies have shown that exercise behavior is influenced by genetic factors.</div><br><div style =""font-size:20px; position:relative; top: 40%; margin-right:auto""><i><b>Suggested: &nbsp;&nbsp;Several twin studies have shown that genetic factors influence exercise behavior.</i></b></div><br>","Original: &nbsp;&nbsp;Several twin studies have shown that exercise behavior is influenced by genetic factors.","Suggested: &nbsp;&nbsp;Several twin studies have shown that genetic factors influence exercise behavior.","Medium"
"","7260.300000190735","html-slider-response","26","498557","0.0-2.0-0.24","Chrome","106.0","Windows","10","1536 x 864","1536 x 722","1536","722","","3","<div style =""font-size:20px; position:relative; top: 35%; margin-right:auto"">Original: &nbsp;&nbsp;They see Chen is caught by a cop in the park last night.</div><br><div style =""font-size:20px; position:relative; top: 40%; margin-right:auto""><i><b>Suggested: &nbsp;&nbsp;They saw that Chen was caught by a cop in the park last night.</i></b></div><br>","Original: &nbsp;&nbsp;They see Chen is caught by a cop in the park last night.","Suggested: &nbsp;&nbsp;They saw that Chen was caught by a cop in the park last night.","Medium"
"","5512.299999713898","html-slider-response","27","504073","0.0-2.0-0.25","Chrome","106.0","Windows","10","1536 x 864","1536 x 722","1536","722","","4","<div style =""font-size:20px; position:relative; top: 35%; margin-right:auto"">Original: &nbsp;&nbsp;I stayed at Greece throughout a week</div><br><div style =""font-size:20px; position:relative; top: 40%; margin-right:auto""><i><b>Suggested: &nbsp;&nbsp;I stayed in Greece for a week</i></b></div><br>","Original: &nbsp;&nbsp;I stayed at Greece throughout a week","Suggested: &nbsp;&nbsp;I stayed in Greece for a week","Low"
"","18205.599999904633","html-slider-response","28","522281","0.0-2.0-0.26","Chrome","106.0","Windows","10","1536 x 864","1536 x 722","1536","722","","3","<div style =""font-size:20px; position:relative; top: 35%; margin-right:auto"">Original: &nbsp;&nbsp;While in section 7, we emphasis on utilizing cloud computing servicing in combating COVID-19</div><br><div style =""font-size:20px; position:relative; top: 40%; margin-right:auto""><i><b>Suggested: &nbsp;&nbsp;While in section 7, we emphasize on utilizing cloud computing servicing in combating COVID-19.</i></b></div><br>","Original: &nbsp;&nbsp;While in section 7, we emphasis on utilizing cloud computing servicing in combating COVID-19","Suggested: &nbsp;&nbsp;While in section 7, we emphasize on utilizing cloud computing servicing in combating COVID-19.","Low"
"","10680.5","html-slider-response","29","532964","0.0-2.0-0.27","Chrome","106.0","Windows","10","1536 x 864","1536 x 722","1536","722","","2","<div style =""font-size:20px; position:relative; top: 35%; margin-right:auto"">Original: &nbsp;&nbsp;I wanna have a cup of coffee.</div><br><div style =""font-size:20px; position:relative; top: 40%; margin-right:auto""><i><b>Suggested: &nbsp;&nbsp;I want to have a cup of coffee.</i></b></div><br>","Original: &nbsp;&nbsp;I wanna have a cup of coffee.","Suggested: &nbsp;&nbsp;I want to have a cup of coffee.","Low"
"","50191.09999990463","html-slider-response","30","583161","0.0-2.0-0.28","Chrome","106.0","Windows","10","1536 x 864","1536 x 722","1536","722","","1","<div style =""font-size:20px; position:relative; top: 35%; margin-right:auto"">Original: &nbsp;&nbsp;In the model, afterslip is attributing to the interaction of a velocity weakening region at depth (within which earthquakes nucleate) with an upper region on velocity-strengthening-frictional behavior.</div><br><div style =""font-size:20px; position:relative; top: 40%; margin-right:auto""><i><b>Suggested: &nbsp;&nbsp;In the model, afterslip is attributed to the interaction of a velocity-weakening region at depth (within which earthquakes nucleate) with an upper region of velocity-strengthening frictional behaviour.</i></b></div><br>","Original: &nbsp;&nbsp;In the model, afterslip is attributing to the interaction of a velocity weakening region at depth (within which earthquakes nucleate) with an upper region on velocity-strengthening-frictional behavior.","Suggested: &nbsp;&nbsp;In the model, afterslip is attributed to the interaction of a velocity-weakening region at depth (within which earthquakes nucleate) with an upper region of velocity-strengthening frictional behaviour.","Medium"
"","47011.199999809265","html-slider-response","31","630179","0.0-2.0-0.29","Chrome","106.0","Windows","10","1536 x 864","1536 x 722","1536","722","","3","<div style =""font-size:20px; position:relative; top: 35%; margin-right:auto"">Original: &nbsp;&nbsp;Sprott is the ultimate silver bull, it's his entire portfolio and he sells silver by a living.</div><br><div style =""font-size:20px; position:relative; top: 40%; margin-right:auto""><i><b>Suggested: &nbsp;&nbsp;Sprott is the ultimate silver bull, it's his entire portfolio and he sells silver for a living.</i></b></div><br>","Original: &nbsp;&nbsp;Sprott is the ultimate silver bull, it's his entire portfolio and he sells silver by a living.","Suggested: &nbsp;&nbsp;Sprott is the ultimate silver bull, it's his entire portfolio and he sells silver for a living.","Low"
"","67125.40000009537","html-slider-response","32","697308","0.0-2.0-0.30","Chrome","106.0","Windows","10","1536 x 864","1536 x 722","1536","722","","3","<div style =""font-size:20px; position:relative; top: 35%; margin-right:auto"">Original: &nbsp;&nbsp;We cleaned all the kitchen while our parents were out to dinner.</div><br><div style =""font-size:20px; position:relative; top: 40%; margin-right:auto""><i><b>Suggested: &nbsp;&nbsp;We cleaned the entire kitchen while our parents were out to dinner.</i></b></div><br>","Original: &nbsp;&nbsp;We cleaned all the kitchen while our parents were out to dinner.","Suggested: &nbsp;&nbsp;We cleaned the entire kitchen while our parents were out to dinner.","Low"
"","30355.300000190735","html-slider-response","33","727665","0.0-2.0-0.31","Chrome","106.0","Windows","10","1536 x 864","1536 x 722","1536","722","","4","<div style =""font-size:20px; position:relative; top: 35%; margin-right:auto"">Original: &nbsp;&nbsp;How did they get to know how to be able use this equipment?</div><br><div style =""font-size:20px; position:relative; top: 40%; margin-right:auto""><i><b>Suggested: &nbsp;&nbsp;How were they able to use this equipment?</i></b></div><br>","Original: &nbsp;&nbsp;How did they get to know how to be able use this equipment?","Suggested: &nbsp;&nbsp;How were they able to use this equipment?","High"
"","16091.799999713898","html-slider-response","34","743759","0.0-2.0-0.32","Chrome","106.0","Windows","10","1536 x 864","1536 x 722","1536","722","","3","<div style =""font-size:20px; position:relative; top: 35%; margin-right:auto"">Original: &nbsp;&nbsp;Carcinosarcoma by the esophagus has known to producing metastatic osteosarcoma in lung, kidney and iliac bone.</div><br><div style =""font-size:20px; position:relative; top: 40%; margin-right:auto""><i><b>Suggested: &nbsp;&nbsp;Carcinosarcoma of the oesophagus is known to produce metastatic osteosarcoma in the lungs, kidneys and ilium.</i></b></div><br>","Original: &nbsp;&nbsp;Carcinosarcoma by the esophagus has known to producing metastatic osteosarcoma in lung, kidney and iliac bone.","Suggested: &nbsp;&nbsp;Carcinosarcoma of the oesophagus is known to produce metastatic osteosarcoma in the lungs, kidneys and ilium.","High"
"","12734.599999904633","html-slider-response","35","756497","0.0-2.0-0.33","Chrome","106.0","Windows","10","1536 x 864","1536 x 722","1536","722","","4","<div style =""font-size:20px; position:relative; top: 35%; margin-right:auto"">Original: &nbsp;&nbsp;The Cobbler introduced this theory, although there is still remain some doubt regarding the authenticity of its origin.</div><br><div style =""font-size:20px; position:relative; top: 40%; margin-right:auto""><i><b>Suggested: &nbsp;&nbsp;The Cobbler introduced this theory, but the authenticity of its origin is still doubtful.</i></b></div><br>","Original: &nbsp;&nbsp;The Cobbler introduced this theory, although there is still remain some doubt regarding the authenticity of its origin.","Suggested: &nbsp;&nbsp;The Cobbler introduced this theory, but the authenticity of its origin is still doubtful.","High"
"","7548.099999904633","html-slider-response","36","764048","0.0-2.0-0.34","Chrome","106.0","Windows","10","1536 x 864","1536 x 722","1536","722","","2","<div style =""font-size:20px; position:relative; top: 35%; margin-right:auto"">Original: &nbsp;&nbsp;I walk to the store and I bought milk.</div><br><div style =""font-size:20px; position:relative; top: 40%; margin-right:auto""><i><b>Suggested: &nbsp;&nbsp;I walk to the store and I buy milk.</i></b></div><br>","Original: &nbsp;&nbsp;I walk to the store and I bought milk.","Suggested: &nbsp;&nbsp;I walk to the store and I buy milk.","Low"
"","4678.400000095367","html-slider-response","37","768729","0.0-2.0-0.35","Chrome","106.0","Windows","10","1536 x 864","1536 x 722","1536","722","","3","<div style =""font-size:20px; position:relative; top: 35%; margin-right:auto"">Original: &nbsp;&nbsp;I had got a bit chubby face when young, but I don't have anymore.</div><br><div style =""font-size:20px; position:relative; top: 40%; margin-right:auto""><i><b>Suggested: &nbsp;&nbsp;I used to have a chubby face when I was a kid.</i></b></div><br>","Original: &nbsp;&nbsp;I had got a bit chubby face when young, but I don't have anymore.","Suggested: &nbsp;&nbsp;I used to have a chubby face when I was a kid.","High"
"","13911.900000095367","html-slider-response","38","782643","0.0-2.0-0.36","Chrome","106.0","Windows","10","1536 x 864","1536 x 722","1536","722","","3","<div style =""font-size:20px; position:relative; top: 35%; margin-right:auto"">Original: &nbsp;&nbsp;Sometimes people try a lot to achieve their aims, but after many hardworking still they cannot get their goals.</div><br><div style =""font-size:20px; position:relative; top: 40%; margin-right:auto""><i><b>Suggested: &nbsp;&nbsp;Sometimes people work hard to achieve their goals, but after much hardwork, they still cannot achieve them.</i></b></div><br>","Original: &nbsp;&nbsp;Sometimes people try a lot to achieve their aims, but after many hardworking still they cannot get their goals.","Suggested: &nbsp;&nbsp;Sometimes people work hard to achieve their goals, but after much hardwork, they still cannot achieve them.","High"
"","29994","html-slider-response","39","812641","0.0-2.0-0.37","Chrome","106.0","Windows","10","1536 x 864","1536 x 722","1536","722","","3","<div style =""font-size:20px; position:relative; top: 35%; margin-right:auto"">Original: &nbsp;&nbsp;Though Mitchell prefers romantic films, he rented latest spy thriller, and enjoyed it lot.</div><br><div style =""font-size:20px; position:relative; top: 40%; margin-right:auto""><i><b>Suggested: &nbsp;&nbsp;Though Mitchell prefers watching romantic films, he rented the latest spy thriller, and he enjoyed it very much.</i></b></div><br>","Original: &nbsp;&nbsp;Though Mitchell prefers romantic films, he rented latest spy thriller, and enjoyed it lot.","Suggested: &nbsp;&nbsp;Though Mitchell prefers watching romantic films, he rented the latest spy thriller, and he enjoyed it very much.","Medium"
"","29126.099999904633","html-slider-response","40","841770","0.0-2.0-0.38","Chrome","106.0","Windows","10","1536 x 864","1536 x 722","1536","722","","3","<div style =""font-size:20px; position:relative; top: 35%; margin-right:auto"">Original: &nbsp;&nbsp;The news article has taken part making it clear that the company cheated its client to the tune of $8 million. </div><br><div style =""font-size:20px; position:relative; top: 40%; margin-right:auto""><i><b>Suggested: &nbsp;&nbsp;The news article has made it clear that the company cheated its clients to the tune of $8 million.</i></b></div><br>","Original: &nbsp;&nbsp;The news article has taken part making it clear that the company cheated its client to the tune of $8 million. ","Suggested: &nbsp;&nbsp;The news article has made it clear that the company cheated its clients to the tune of $8 million.","High"
"","11077.799999713898","html-slider-response","41","852851","0.0-2.0-0.39","Chrome","106.0","Windows","10","1536 x 864","1536 x 722","1536","722","","3","<div style =""font-size:20px; position:relative; top: 35%; margin-right:auto"">Original: &nbsp;&nbsp;I thinking of moving soon.</div><br><div style =""font-size:20px; position:relative; top: 40%; margin-right:auto""><i><b>Suggested: &nbsp;&nbsp;I am thinking of moving soon.</i></b></div><br>","Original: &nbsp;&nbsp;I thinking of moving soon.","Suggested: &nbsp;&nbsp;I am thinking of moving soon.","Low"
"","24825.10000038147","html-slider-response","42","877679","0.0-2.0-0.40","Chrome","106.0","Windows","10","1536 x 864","1536 x 722","1536","722","","3","<div style =""font-size:20px; position:relative; top: 35%; margin-right:auto"">Original: &nbsp;&nbsp;Almost 300 families are coming to church from this village.</div><br><div style =""font-size:20px; position:relative; top: 40%; margin-right:auto""><i><b>Suggested: &nbsp;&nbsp;Almost 300 families from this village come to church .</i></b></div><br>","Original: &nbsp;&nbsp;Almost 300 families are coming to church from this village.","Suggested: &nbsp;&nbsp;Almost 300 families from this village come to church .","Medium"
"","33152.800000190735","html-slider-response","43","910834","0.0-2.0-0.41","Chrome","106.0","Windows","10","1536 x 864","1536 x 722","1536","722","","3","<div style =""font-size:20px; position:relative; top: 35%; margin-right:auto"">Original: &nbsp;&nbsp;Then why ur office is delaying RTI replies?</div><br><div style =""font-size:20px; position:relative; top: 40%; margin-right:auto""><i><b>Suggested: &nbsp;&nbsp;Then why is your office delaying RTI replies?</i></b></div><br>","Original: &nbsp;&nbsp;Then why ur office is delaying RTI replies?","Suggested: &nbsp;&nbsp;Then why is your office delaying RTI replies?","Low"
"","111710.30000019073","html-slider-response","44","1022546","0.0-2.0-0.42","Chrome","106.0","Windows","10","1536 x 864","1536 x 722","1536","722","","3","<div style =""font-size:20px; position:relative; top: 35%; margin-right:auto"">Original: &nbsp;&nbsp;They invade and occupied Jutland as this is peninsula directly connected with Germany.</div><br><div style =""font-size:20px; position:relative; top: 40%; margin-right:auto""><i><b>Suggested: &nbsp;&nbsp;They invaded and occupied Jutland as it is a peninsula directly connected to Germany.</i></b></div><br>","Original: &nbsp;&nbsp;They invade and occupied Jutland as this is peninsula directly connected with Germany.","Suggested: &nbsp;&nbsp;They invaded and occupied Jutland as it is a peninsula directly connected to Germany.","Medium"
"","23195.400000095367","html-slider-response","45","1045744","0.0-2.0-0.43","Chrome","106.0","Windows","10","1536 x 864","1536 x 722","1536","722","","2","<div style =""font-size:20px; position:relative; top: 35%; margin-right:auto"">Original: &nbsp;&nbsp;I see a disconnect among pedagogy and technology right now.</div><br><div style =""font-size:20px; position:relative; top: 40%; margin-right:auto""><i><b>Suggested: &nbsp;&nbsp;I see a disconnect between pedagogy and technology right now.</i></b></div><br>","Original: &nbsp;&nbsp;I see a disconnect among pedagogy and technology right now.","Suggested: &nbsp;&nbsp;I see a disconnect between pedagogy and technology right now.","Low"
"","9852","html-slider-response","46","1055599","0.0-2.0-0.44","Chrome","106.0","Windows","10","1536 x 864","1536 x 722","1536","722","","3","<div style =""font-size:20px; position:relative; top: 35%; margin-right:auto"">Original: &nbsp;&nbsp;Significantly, whereas anaerobiosis is essential for their powerful primary metabolism, the typical low aerotolerance complicate bioprocessing.</div><br><div style =""font-size:20px; position:relative; top: 40%; margin-right:auto""><i><b>Suggested: &nbsp;&nbsp;Significantly, while anaerobiosis is essential for their powerful primary metabolism, their typically low aerotolerance complicates bioprocessing.</i></b></div><br>","Original: &nbsp;&nbsp;Significantly, whereas anaerobiosis is essential for their powerful primary metabolism, the typical low aerotolerance complicate bioprocessing.","Suggested: &nbsp;&nbsp;Significantly, while anaerobiosis is essential for their powerful primary metabolism, their typically low aerotolerance complicates bioprocessing.","Medium"
"","8582","html-slider-response","47","1064184","0.0-2.0-0.45","Chrome","106.0","Windows","10","1536 x 864","1536 x 722","1536","722","","4","<div style =""font-size:20px; position:relative; top: 35%; margin-right:auto"">Original: &nbsp;&nbsp;For the last year, she has continued to sell real estate part-time, primarily weakends</div><br><div style =""font-size:20px; position:relative; top: 40%; margin-right:auto""><i><b>Suggested: &nbsp;&nbsp;For the last year, she has continued to sell real estate part-time, primarily weekends.</i></b></div><br>","Original: &nbsp;&nbsp;For the last year, she has continued to sell real estate part-time, primarily weakends","Suggested: &nbsp;&nbsp;For the last year, she has continued to sell real estate part-time, primarily weekends.","Low"
"","38332.59999990463","html-slider-response","48","1102520","0.0-2.0-0.46","Chrome","106.0","Windows","10","1536 x 864","1536 x 722","1536","722","","3","<div style =""font-size:20px; position:relative; top: 35%; margin-right:auto"">Original: &nbsp;&nbsp;The town has two railroads running through it. Also, three trolley lines. </div><br><div style =""font-size:20px; position:relative; top: 40%; margin-right:auto""><i><b>Suggested: &nbsp;&nbsp;The town has two railroads and three trolley lines running through it.</i></b></div><br>","Original: &nbsp;&nbsp;The town has two railroads running through it. Also, three trolley lines. ","Suggested: &nbsp;&nbsp;The town has two railroads and three trolley lines running through it.","Medium"
"","19188","html-slider-response","49","1121712","0.0-2.0-0.47","Chrome","106.0","Windows","10","1536 x 864","1536 x 722","1536","722","","3","<div style =""font-size:20px; position:relative; top: 35%; margin-right:auto"">Original: &nbsp;&nbsp;It becomes a more personal voyage in to those worlds, the mental image unencumbered with the limitations of the video-screen or the creator's vision. </div><br><div style =""font-size:20px; position:relative; top: 40%; margin-right:auto""><i><b>Suggested: &nbsp;&nbsp;It becomes a more personal voyage into those worlds, the mental image unencumbered by the limitations of the video screen or the creator's vision.</i></b></div><br>","Original: &nbsp;&nbsp;It becomes a more personal voyage in to those worlds, the mental image unencumbered with the limitations of the video-screen or the creator's vision. ","Suggested: &nbsp;&nbsp;It becomes a more personal voyage into those worlds, the mental image unencumbered by the limitations of the video screen or the creator's vision.","Medium"
"","7519.199999809265","html-slider-response","50","1129234","0.0-2.0-0.48","Chrome","106.0","Windows","10","1536 x 864","1536 x 722","1536","722","","2","<div style =""font-size:20px; position:relative; top: 35%; margin-right:auto"">Original: &nbsp;&nbsp;Maybe student can deciding to attend classes from home because it's benefit for them.</div><br><div style =""font-size:20px; position:relative; top: 40%; margin-right:auto""><i><b>Suggested: &nbsp;&nbsp;Maybe students can decide to attend classes from home because it benefits them.</i></b></div><br>","Original: &nbsp;&nbsp;Maybe student can deciding to attend classes from home because it's benefit for them.","Suggested: &nbsp;&nbsp;Maybe students can decide to attend classes from home because it benefits them.","Low"
"","8206.099999904633","html-slider-response","51","1137444","0.0-2.0-0.49","Chrome","106.0","Windows","10","1536 x 864","1536 x 722","1536","722","","3","<div style =""font-size:20px; position:relative; top: 35%; margin-right:auto"">Original: &nbsp;&nbsp;The survey we performed recently showed that most of customers are satisfied.</div><br><div style =""font-size:20px; position:relative; top: 40%; margin-right:auto""><i><b>Suggested: &nbsp;&nbsp;The survey we performed recently showed that most of the customers are satisfied.</i></b></div><br>","Original: &nbsp;&nbsp;The survey we performed recently showed that most of customers are satisfied.","Suggested: &nbsp;&nbsp;The survey we performed recently showed that most of the customers are satisfied.","Low"
"","5307.300000190735","html-slider-response","52","1142753","0.0-2.0-0.50","Chrome","106.0","Windows","10","1536 x 864","1536 x 722","1536","722","","3","<div style =""font-size:20px; position:relative; top: 35%; margin-right:auto"">Original: &nbsp;&nbsp;I am in favour of a solution finding.</div><br><div style =""font-size:20px; position:relative; top: 40%; margin-right:auto""><i><b>Suggested: &nbsp;&nbsp;I am in favour of finding a solution.</i></b></div><br>","Original: &nbsp;&nbsp;I am in favour of a solution finding.","Suggested: &nbsp;&nbsp;I am in favour of finding a solution.","Low"
"","7520.800000190735","html-slider-response","53","1150276","0.0-2.0-0.51","Chrome","106.0","Windows","10","1536 x 864","1536 x 722","1536","722","","3","<div style =""font-size:20px; position:relative; top: 35%; margin-right:auto"">Original: &nbsp;&nbsp;We drove all day in the van, we drove 206 miles to get to our cabin.</div><br><div style =""font-size:20px; position:relative; top: 40%; margin-right:auto""><i><b>Suggested: &nbsp;&nbsp;We drove all day in the van and we drove 206 miles to get to our cabin.</i></b></div><br>","Original: &nbsp;&nbsp;We drove all day in the van, we drove 206 miles to get to our cabin.","Suggested: &nbsp;&nbsp;We drove all day in the van and we drove 206 miles to get to our cabin.","Low"
"","12210.699999809265","html-slider-response","54","1162490","0.0-2.0-0.52","Chrome","106.0","Windows","10","1536 x 864","1536 x 722","1536","722","","3","<div style =""font-size:20px; position:relative; top: 35%; margin-right:auto"">Original: &nbsp;&nbsp;Ammons glide wondrously from a fresh element in these mosaic into its dominant core, cementing and enhancing it's naturalism.</div><br><div style =""font-size:20px; position:relative; top: 40%; margin-right:auto""><i><b>Suggested: &nbsp;&nbsp;Ammons glides wondrously from a fresh element in this mosaic into its dominant core, cementing and enhancing its naturalism.</i></b></div><br>","Original: &nbsp;&nbsp;Ammons glide wondrously from a fresh element in these mosaic into its dominant core, cementing and enhancing it's naturalism.","Suggested: &nbsp;&nbsp;Ammons glides wondrously from a fresh element in this mosaic into its dominant core, cementing and enhancing its naturalism.","Medium"
"","17132.599999904633","html-slider-response","55","1179626","0.0-2.0-0.53","Chrome","106.0","Windows","10","1536 x 864","1536 x 722","1536","722","","3","<div style =""font-size:20px; position:relative; top: 35%; margin-right:auto"">Original: &nbsp;&nbsp;Diana forget her friend birthday so she sent a card when she finally remember.</div><br><div style =""font-size:20px; position:relative; top: 40%; margin-right:auto""><i><b>Suggested: &nbsp;&nbsp;Diana forgot her friend's birthday, so she sent her a card when she finally remembered.</i></b></div><br>","Original: &nbsp;&nbsp;Diana forget her friend birthday so she sent a card when she finally remember.","Suggested: &nbsp;&nbsp;Diana forgot her friend's birthday, so she sent her a card when she finally remembered.","Medium"
"","8186.099999904633","html-slider-response","56","1187815","0.0-2.0-0.54","Chrome","106.0","Windows","10","1536 x 864","1536 x 722","1536","722","","3","<div style =""font-size:20px; position:relative; top: 35%; margin-right:auto"">Original: &nbsp;&nbsp;Since your going out, you should check the weather on you're phone.</div><br><div style =""font-size:20px; position:relative; top: 40%; margin-right:auto""><i><b>Suggested: &nbsp;&nbsp;Since you are going out, you should check the weather on your phone.</i></b></div><br>","Original: &nbsp;&nbsp;Since your going out, you should check the weather on you're phone.","Suggested: &nbsp;&nbsp;Since you are going out, you should check the weather on your phone.","Low"
"","8502.800000190735","html-slider-response","57","1196321","0.0-2.0-0.55","Chrome","106.0","Windows","10","1536 x 864","1536 x 722","1536","722","","3","<div style =""font-size:20px; position:relative; top: 35%; margin-right:auto"">Original: &nbsp;&nbsp;It’s almost spring end and I am not done shopping yet.</div><br><div style =""font-size:20px; position:relative; top: 40%; margin-right:auto""><i><b>Suggested: &nbsp;&nbsp;It’s nearly the end of spring, and I am not done with my shopping yet.</i></b></div><br>","Original: &nbsp;&nbsp;It’s almost spring end and I am not done shopping yet.","Suggested: &nbsp;&nbsp;It’s nearly the end of spring, and I am not done with my shopping yet.","Medium"
"","33308.90000009537","html-slider-response","58","1229632","0.0-2.0-0.56","Chrome","106.0","Windows","10","1536 x 864","1536 x 722","1536","722","","3","<div style =""font-size:20px; position:relative; top: 35%; margin-right:auto"">Original: &nbsp;&nbsp;Carcinosarcoma by the esophagus has known to producing metastatic osteosarcoma in lung, kidney and iliac bone.</div><br><div style =""font-size:20px; position:relative; top: 40%; margin-right:auto""><i><b>Suggested: &nbsp;&nbsp;Carcinosarcoma of the oesophagus is known to produce metastatic osteosarcoma in the lungs, kidneys and ilium.</i></b></div><br>","Original: &nbsp;&nbsp;Carcinosarcoma by the esophagus has known to producing metastatic osteosarcoma in lung, kidney and iliac bone.","Suggested: &nbsp;&nbsp;Carcinosarcoma of the oesophagus is known to produce metastatic osteosarcoma in the lungs, kidneys and ilium.","High"
"","6281.400000095367","html-slider-response","59","1235916","0.0-2.0-0.57","Chrome","106.0","Windows","10","1536 x 864","1536 x 722","1536","722","","3","<div style =""font-size:20px; position:relative; top: 35%; margin-right:auto"">Original: &nbsp;&nbsp;In recent years empowering women  have  been receiving  increasing attention as an important theme in the economic and social policy in Japan.</div><br><div style =""font-size:20px; position:relative; top: 40%; margin-right:auto""><i><b>Suggested: &nbsp;&nbsp;In recent years, the empowerment of women has received increasing attention as an important theme in the economic and social policies  of  Japan.</i></b></div><br>","Original: &nbsp;&nbsp;In recent years empowering women  have  been receiving  increasing attention as an important theme in the economic and social policy in Japan.","Suggested: &nbsp;&nbsp;In recent years, the empowerment of women has received increasing attention as an important theme in the economic and social policies  of  Japan.","High"
"","15041.300000190735","html-slider-response","60","1250960","0.0-2.0-0.58","Chrome","106.0","Windows","10","1536 x 864","1536 x 722","1536","722","","1","<div style =""font-size:20px; position:relative; top: 35%; margin-right:auto"">Original: &nbsp;&nbsp;Freddy likes his new Ford because it is four wheel drive he can drive on back roads all the time.</div><br><div style =""font-size:20px; position:relative; top: 40%; margin-right:auto""><i><b>Suggested: &nbsp;&nbsp;Freddy likes his new Ford. Because it is a four-wheel drive, he can drive on back roads all the time.</i></b></div><br>","Original: &nbsp;&nbsp;Freddy likes his new Ford because it is four wheel drive he can drive on back roads all the time.","Suggested: &nbsp;&nbsp;Freddy likes his new Ford. Because it is a four-wheel drive, he can drive on back roads all the time.","Medium"
"","7679.300000190735","html-slider-response","61","1258642","0.0-2.0-0.59","Chrome","106.0","Windows","10","1536 x 864","1536 x 722","1536","722","","3","<div style =""font-size:20px; position:relative; top: 35%; margin-right:auto"">Original: &nbsp;&nbsp;Artificial Intelligence (AI) intent is to facilitate human limits. </div><br><div style =""font-size:20px; position:relative; top: 40%; margin-right:auto""><i><b>Suggested: &nbsp;&nbsp;Artificial Intelligence (AI) intends to facilitate human limits.</i></b></div><br>","Original: &nbsp;&nbsp;Artificial Intelligence (AI) intent is to facilitate human limits. ","Suggested: &nbsp;&nbsp;Artificial Intelligence (AI) intends to facilitate human limits.","Medium"
